ID,sex,age,handedness,condition,leftButton,block,trial,intensity,direction,intF,response,respF,correct,sayhigh,sayhi,rt,TS_MoogStart,TS_Resp,order
1,m,26,right,speeded,low,1,1,0.046,1,low,0,left,1,low,0,1.425,3.905,5.33,1
1,m,26,right,speeded,low,1,2,0.052,0,low,1,right,0,high,1,1.173,8.453,9.626,1
1,m,26,right,speeded,low,1,3,0.065,1,high,1,right,1,high,1,1.016,12.969,13.985,1
1,m,26,right,speeded,low,1,4,0.074,0,high,1,right,1,high,1,1.401,17.501,18.902,1
1,m,26,right,speeded,low,1,5,0.065,1,high,0,left,0,low,0,1.357,22.016,23.373,1
1,m,26,right,speeded,low,1,6,0.055,0,low,0,left,1,low,0,1.771,26.547,28.318,1
1,m,26,right,speeded,low,1,7,0.065,1,high,1,right,1,high,1,1.404,31.062,32.466,1
1,m,26,right,speeded,low,1,8,0.046,0,low,0,left,1,low,0,1.427,35.594,37.021,1
1,m,26,right,speeded,low,1,9,0.071,1,high,0,left,0,low,0,1.626,40.126,41.752,1
1,m,26,right,speeded,low,1,10,0.068,0,high,1,right,1,high,1,1.417,44.658,46.075,1
1,m,26,right,speeded,low,1,11,0.074,1,high,1,right,1,high,1,1.928,49.189,51.117,1
1,m,26,right,speeded,low,1,12,0.068,0,high,1,right,1,high,1,1.409,53.738,55.147,1
1,m,26,right,speeded,low,1,13,0.046,1,low,0,left,1,low,0,1.344,58.204,59.548,1
1,m,26,right,speeded,low,1,14,0.068,0,high,1,right,1,high,1,0.780999999999999,62.768,63.549,1
1,m,26,right,speeded,low,1,15,0.049,1,low,0,left,1,low,0,1.22200000000001,67.317,68.539,1
1,m,26,right,speeded,low,1,16,0.071,0,high,1,right,1,high,1,1.538,71.815,73.353,1
1,m,26,right,speeded,low,1,17,0.074,1,high,1,right,1,high,1,1.16900000000001,76.38,77.549,1
1,m,26,right,speeded,low,1,18,0.074,0,high,1,right,1,high,1,1.65900000000001,80.928,82.587,1
1,m,26,right,speeded,low,1,19,0.055,1,low,0,left,1,low,0,1.95700000000001,85.41,87.367,1
1,m,26,right,speeded,low,1,20,0.055,0,low,0,left,1,low,0,2.101,89.959,92.06,1
1,m,26,right,speeded,low,1,21,0.071,1,high,1,right,1,high,1,2.408,94.64,97.048,1
1,m,26,right,speeded,low,1,22,0.071,0,high,1,right,1,high,1,1.45099999999999,99.67,101.121,1
1,m,26,right,speeded,low,1,23,0.071,1,high,0,left,0,low,0,1.423,104.201,105.624,1
1,m,26,right,speeded,low,1,24,0.046,0,low,0,left,1,low,0,1.336,108.75,110.086,1
1,m,26,right,speeded,low,1,25,0.049,1,low,1,right,0,high,1,0.971000000000004,113.282,114.253,1
1,m,26,right,speeded,low,1,26,0.052,0,low,1,right,0,high,1,1.55800000000001,117.847,119.405,1
1,m,26,right,speeded,low,1,27,0.068,1,high,1,right,1,high,1,1.51100000000001,122.362,123.873,1
1,m,26,right,speeded,low,1,28,0.055,0,low,0,left,1,low,0,1.66300000000001,126.91,128.573,1
1,m,26,right,speeded,low,1,29,0.074,1,high,1,right,1,high,1,1.298,131.409,132.707,1
1,m,26,right,speeded,low,1,30,0.055,0,low,1,right,0,high,1,1.762,135.907,137.669,1
1,m,26,right,speeded,low,1,31,0.068,1,high,1,right,1,high,1,1.48500000000001,140.456,141.941,1
1,m,26,right,speeded,low,1,32,0.052,0,low,0,left,1,low,0,1.32399999999998,144.954,146.278,1
1,m,26,right,speeded,low,1,33,0.074,1,high,1,right,1,high,1,1.25899999999999,149.453,150.712,1
1,m,26,right,speeded,low,1,34,0.068,0,high,1,right,1,high,1,1.25200000000001,153.951,155.203,1
1,m,26,right,speeded,low,1,35,0.049,1,low,0,left,1,low,0,1.32500000000002,158.433,159.758,1
1,m,26,right,speeded,low,1,36,0.046,0,low,0,left,1,low,0,1.45699999999999,162.948,164.405,1
1,m,26,right,speeded,low,1,37,0.049,1,low,0,left,1,low,0,1.88699999999997,167.497,169.384,1
1,m,26,right,speeded,low,1,38,0.049,0,low,0,left,1,low,0,1.905,172.012,173.917,1
1,m,26,right,speeded,low,1,39,0.049,1,low,0,left,1,low,0,1.95400000000001,176.56,178.514,1
1,m,26,right,speeded,low,1,40,0.071,0,high,1,right,1,high,1,1.221,181.076,182.297,1
1,m,26,right,speeded,low,1,41,0.071,1,high,1,right,1,high,1,1.46599999999998,185.591,187.057,1
1,m,26,right,speeded,low,1,42,0.052,0,low,0,left,1,low,0,1.57000000000002,190.123,191.693,1
1,m,26,right,speeded,low,1,43,0.068,1,high,0,left,0,low,0,1.63499999999999,194.654,196.289,1
1,m,26,right,speeded,low,1,44,0.074,0,high,1,right,1,high,1,1.43099999999998,199.186,200.617,1
1,m,26,right,speeded,low,1,45,0.046,1,low,0,left,1,low,0,1.40800000000002,203.718,205.126,1
1,m,26,right,speeded,low,1,46,0.071,0,high,1,right,1,high,1,1.422,208.266,209.688,1
1,m,26,right,speeded,low,1,47,0.046,1,low,0,left,1,low,0,1.49799999999999,212.798,214.296,1
1,m,26,right,speeded,low,1,48,0.074,0,high,1,right,1,high,1,1.51300000000001,217.346,218.859,1
1,m,26,right,speeded,low,1,49,0.068,1,high,1,right,1,high,1,0.789000000000016,221.861,222.65,1
1,m,26,right,speeded,low,1,50,0.046,0,low,0,left,1,low,0,1.44900000000001,226.393,227.842,1
1,m,26,right,speeded,low,1,51,0.055,1,low,1,right,0,high,1,1.08500000000001,230.892,231.977,1
1,m,26,right,speeded,low,1,52,0.046,0,low,0,left,1,low,0,1.386,235.424,236.81,1
1,m,26,right,speeded,low,1,53,0.052,1,low,1,right,0,high,1,1.62199999999999,239.955,241.577,1
1,m,26,right,speeded,low,1,54,0.065,0,high,0,left,0,low,0,1.56399999999999,244.454,246.018,1
1,m,26,right,speeded,low,1,55,0.065,1,high,1,right,1,high,1,2.233,248.952,251.185,1
1,m,26,right,speeded,low,1,56,0.046,0,low,0,left,1,low,0,1.798,253.8,255.598,1
1,m,26,right,speeded,low,1,57,0.055,1,low,0,left,1,low,0,1.75600000000003,258.315,260.071,1
1,m,26,right,speeded,low,1,58,0.074,0,high,1,right,1,high,1,1.53199999999998,262.863,264.395,1
1,m,26,right,speeded,low,1,59,0.068,1,high,1,right,1,high,1,2.065,267.362,269.427,1
1,m,26,right,speeded,low,1,60,0.074,0,high,1,right,1,high,1,1.63499999999999,272.043,273.678,1
1,m,26,right,speeded,low,1,61,0.049,1,low,0,left,1,low,0,1.73399999999998,276.608,278.342,1
1,m,26,right,speeded,low,1,62,0.065,0,high,1,right,1,high,1,1.649,281.14,282.789,1
1,m,26,right,speeded,low,1,63,0.074,1,high,1,right,1,high,1,2.30900000000003,285.688,287.997,1
1,m,26,right,speeded,low,1,64,0.065,0,high,1,right,1,high,1,2.089,290.602,292.691,1
1,m,26,right,speeded,low,1,65,0.049,1,low,0,left,1,low,0,1.83300000000003,295.25,297.083,1
1,m,26,right,speeded,low,1,66,0.052,0,low,0,left,1,low,0,1.47300000000001,299.815,301.288,1
1,m,26,right,speeded,low,1,67,0.065,1,high,1,right,1,high,1,0.766999999999996,304.33,305.097,1
1,m,26,right,speeded,low,1,68,0.068,0,high,1,right,1,high,1,1.11900000000003,308.878,309.997,1
1,m,26,right,speeded,low,1,69,0.046,1,low,0,left,1,low,0,1.45299999999997,313.41,314.863,1
1,m,26,right,speeded,low,1,70,0.065,0,high,1,right,1,high,1,1.173,317.875,319.048,1
1,m,26,right,speeded,low,1,71,0.052,1,low,0,left,1,low,0,1.99299999999999,322.424,324.417,1
1,m,26,right,speeded,low,1,72,0.046,0,low,0,left,1,low,0,1.53399999999999,327.005,328.539,1
1,m,26,right,speeded,low,1,73,0.065,1,high,0,left,0,low,0,1.75200000000001,331.537,333.289,1
1,m,26,right,speeded,low,1,74,0.071,0,high,1,right,1,high,1,2.11600000000004,336.085,338.201,1
1,m,26,right,speeded,low,1,75,0.071,1,high,1,right,1,high,1,1.88899999999995,340.766,342.655,1
1,m,26,right,speeded,low,1,76,0.065,0,high,1,right,1,high,1,2.02300000000002,345.315,347.338,1
1,m,26,right,speeded,low,1,77,0.055,1,low,0,left,1,low,0,1.654,349.896,351.55,1
1,m,26,right,speeded,low,1,78,0.074,0,high,0,left,0,low,0,2.09399999999999,354.395,356.489,1
1,m,26,right,speeded,low,1,79,0.052,1,low,1,right,0,high,1,1.86099999999999,359.093,360.954,1
1,m,26,right,speeded,low,1,80,0.052,0,low,0,left,1,low,0,1.815,363.641,365.456,1
1,m,26,right,speeded,low,1,81,0.068,1,high,1,right,1,high,1,1.12799999999999,368.156,369.284,1
1,m,26,right,speeded,low,1,82,0.068,0,high,1,right,1,high,1,1.36900000000003,372.705,374.074,1
1,m,26,right,speeded,low,1,83,0.071,1,high,1,right,1,high,1,1.41399999999999,377.253,378.667,1
1,m,26,right,speeded,low,1,84,0.049,0,low,0,left,1,low,0,1.55399999999997,381.752,383.306,1
1,m,26,right,speeded,low,1,85,0.055,1,low,0,left,1,low,0,1.58199999999999,386.267,387.849,1
1,m,26,right,speeded,low,1,86,0.074,0,high,1,right,1,high,1,1.63100000000003,390.765,392.396,1
1,m,26,right,speeded,low,1,87,0.052,1,low,0,left,1,low,0,1.39800000000002,395.33,396.728,1
1,m,26,right,speeded,low,1,88,0.065,0,high,0,left,0,low,0,1.61699999999996,399.879,401.496,1
1,m,26,right,speeded,low,1,89,0.052,1,low,0,left,1,low,0,2.024,404.394,406.418,1
1,m,26,right,speeded,low,1,90,0.052,0,low,0,left,1,low,0,1.61099999999999,408.975,410.586,1
1,m,26,right,speeded,low,1,91,0.074,1,high,1,right,1,high,1,1.90199999999999,413.507,415.409,1
1,m,26,right,speeded,low,1,92,0.055,0,low,0,left,1,low,0,1.76800000000003,418.006,419.774,1
1,m,26,right,speeded,low,1,93,0.068,1,high,1,right,1,high,1,2.209,422.537,424.746,1
1,m,26,right,speeded,low,1,94,0.049,0,low,0,left,1,low,0,1.60900000000004,427.318,428.927,1
1,m,26,right,speeded,low,1,95,0.065,1,high,1,right,1,high,1,1.30599999999998,431.867,433.173,1
1,m,26,right,speeded,low,1,96,0.049,0,low,1,right,0,high,1,1.87199999999996,436.415,438.287,1
1,m,26,right,speeded,low,1,97,0.046,1,low,0,left,1,low,0,1.55399999999997,440.963,442.517,1
1,m,26,right,speeded,low,1,98,0.055,0,low,1,right,0,high,1,1.51799999999997,445.545,447.063,1
1,m,26,right,speeded,low,1,99,0.049,1,low,0,left,1,low,0,1.60899999999998,450.11,451.719,1
1,m,26,right,speeded,low,1,100,0.065,0,high,1,right,1,high,1,1.66899999999998,454.625,456.294,1
1,m,26,right,speeded,low,1,101,0.065,1,high,1,right,1,high,1,1.91399999999999,459.207,461.121,1
1,m,26,right,speeded,low,1,102,0.071,0,high,1,right,1,high,1,1.51400000000001,463.772,465.286,1
1,m,26,right,speeded,low,1,103,0.046,1,low,0,left,1,low,0,1.74299999999999,468.303,470.046,1
1,m,26,right,speeded,low,1,104,0.068,0,high,1,right,1,high,1,1.55900000000003,472.868,474.427,1
1,m,26,right,speeded,low,1,105,0.052,1,low,0,left,1,low,0,1.59399999999999,477.384,478.978,1
1,m,26,right,speeded,low,1,106,0.049,0,low,0,left,1,low,0,1.86899999999997,481.932,483.801,1
1,m,26,right,speeded,low,1,107,0.055,1,low,0,left,1,low,0,1.72999999999996,486.497,488.227,1
1,m,26,right,speeded,low,1,108,0.065,0,high,1,right,1,high,1,1.78100000000001,491.012,492.793,1
1,m,26,right,speeded,low,1,109,0.055,1,low,0,left,1,low,0,1.36700000000002,495.544,496.911,1
1,m,26,right,speeded,low,1,110,0.049,0,low,0,left,1,low,0,1.43299999999999,500.092,501.525,1
1,m,26,right,speeded,low,1,111,0.052,1,low,0,left,1,low,0,1.79399999999998,504.624,506.418,1
1,m,26,right,speeded,low,1,112,0.052,0,low,0,left,1,low,0,1.678,509.172,510.85,1
1,m,26,right,speeded,low,1,113,0.055,1,low,0,left,1,low,0,2.03699999999992,513.671,515.708,1
1,m,26,right,speeded,low,1,114,0.055,0,low,0,left,1,low,0,2.61900000000003,518.269,520.888,1
1,m,26,right,speeded,low,1,115,0.068,1,high,1,right,1,high,1,1.44999999999993,523.465,524.915,1
1,m,26,right,speeded,low,1,116,0.068,0,high,1,right,1,high,1,1.62799999999993,527.98,529.608,1
1,m,26,right,speeded,low,1,117,0.052,1,low,0,left,1,low,0,1.76100000000008,532.545,534.306,1
1,m,26,right,speeded,low,1,118,0.046,0,low,0,left,1,low,0,1.755,537.11,538.865,1
1,m,26,right,speeded,low,1,119,0.071,1,high,1,right,1,high,1,0.913999999999987,541.625,542.539,1
1,m,26,right,speeded,low,1,120,0.049,0,low,0,left,1,low,0,1.43200000000002,546.157,547.589,1
1,m,26,right,speeded,low,1,121,0.074,1,high,1,right,1,high,1,0.97300000000007,550.689,551.662,1
1,m,26,right,speeded,low,1,122,0.071,0,high,1,right,1,high,1,1.28599999999994,555.22,556.506,1
1,m,26,right,speeded,low,1,123,0.074,1,high,1,right,1,high,1,1.75400000000002,559.769,561.523,1
1,m,26,right,speeded,low,1,124,0.049,0,low,0,left,1,low,0,1.52800000000002,564.284,565.812,1
1,m,26,right,speeded,low,1,125,0.046,1,low,0,left,1,low,0,1.62899999999991,568.849,570.478,1
1,m,26,right,speeded,low,1,126,0.071,0,high,1,right,1,high,1,1.64599999999996,573.414,575.06,1
1,m,26,right,speeded,low,1,127,0.071,1,high,1,right,1,high,1,1.69399999999996,577.946,579.64,1
1,m,26,right,speeded,low,1,128,0.055,0,low,0,left,1,low,0,1.82900000000006,582.511,584.34,1
1,m,26,right,speeded,low,2,1,0.065,1,high,0,left,0,low,0,1.799,3.871,5.67,1
1,m,26,right,speeded,low,2,2,0.049,0,low,0,left,1,low,0,1.509,8.353,9.862,1
1,m,26,right,speeded,low,2,3,0.052,1,low,0,left,1,low,0,1.573,12.884,14.457,1
1,m,26,right,speeded,low,2,4,0.074,0,high,1,right,1,high,1,0.957999999999998,17.433,18.391,1
1,m,26,right,speeded,low,2,5,0.068,1,high,1,right,1,high,1,1.018,21.948,22.966,1
1,m,26,right,speeded,low,2,6,0.046,0,low,0,left,1,low,0,1.329,26.43,27.759,1
1,m,26,right,speeded,low,2,7,0.052,1,low,0,left,1,low,0,1.439,30.962,32.401,1
1,m,26,right,speeded,low,2,8,0.049,0,low,0,left,1,low,0,1.147,35.493,36.64,1
1,m,26,right,speeded,low,2,9,0.065,1,high,1,right,1,high,1,1.442,40.009,41.451,1
1,m,26,right,speeded,low,2,10,0.071,0,high,1,right,1,high,1,1.514,44.557,46.071,1
1,m,26,right,speeded,low,2,11,0.074,1,high,1,right,1,high,1,1.473,49.072,50.545,1
1,m,26,right,speeded,low,2,12,0.046,0,low,1,right,0,high,1,1.695,53.604,55.299,1
1,m,26,right,speeded,low,2,13,0.071,1,high,1,right,1,high,1,1.775,58.152,59.927,1
1,m,26,right,speeded,low,2,14,0.074,0,high,1,right,1,high,1,2.143,62.667,64.81,1
1,m,26,right,speeded,low,2,15,0.055,1,low,0,left,1,low,0,1.53099999999999,67.432,68.963,1
1,m,26,right,speeded,low,2,16,0.068,0,high,1,right,1,high,1,1.819,71.947,73.766,1
1,m,26,right,speeded,low,2,17,0.071,1,high,1,right,1,high,1,1.697,76.462,78.159,1
1,m,26,right,speeded,low,2,18,0.046,0,low,0,left,1,low,0,2.42399999999999,81.027,83.451,1
1,m,26,right,speeded,low,2,19,0.074,1,high,1,right,1,high,1,0.894000000000005,86.023,86.917,1
1,m,26,right,speeded,low,2,20,0.052,0,low,0,left,1,low,0,1.58000000000001,90.588,92.168,1
1,m,26,right,speeded,low,2,21,0.049,1,low,1,right,0,high,1,1.41800000000001,95.137,96.555,1
1,m,26,right,speeded,low,2,22,0.065,0,high,1,right,1,high,1,1.621,99.635,101.256,1
1,m,26,right,speeded,low,2,23,0.055,1,low,1,right,0,high,1,1.401,104.167,105.568,1
1,m,26,right,speeded,low,2,24,0.074,0,high,1,right,1,high,1,1.52800000000001,108.699,110.227,1
1,m,26,right,speeded,low,2,25,0.055,1,low,0,left,1,low,0,1.383,113.214,114.597,1
1,m,26,right,speeded,low,2,26,0.055,0,low,1,right,0,high,1,2.128,117.762,119.89,1
1,m,26,right,speeded,low,2,27,0.068,1,high,1,right,1,high,1,1.765,122.493,124.258,1
1,m,26,right,speeded,low,2,28,0.046,0,low,0,left,1,low,0,1.53700000000001,127.025,128.562,1
1,m,26,right,speeded,low,2,29,0.065,1,high,1,right,1,high,1,1.71900000000002,131.557,133.276,1
1,m,26,right,speeded,low,2,30,0.071,0,high,1,right,1,high,1,1.69799999999998,136.056,137.754,1
1,m,26,right,speeded,low,2,31,0.049,1,low,1,right,0,high,1,1.79499999999999,140.62,142.415,1
1,m,26,right,speeded,low,2,32,0.055,0,low,1,right,0,high,1,1.48700000000002,145.152,146.639,1
1,m,26,right,speeded,low,2,33,0.055,1,low,0,left,1,low,0,1.64700000000002,149.634,151.281,1
1,m,26,right,speeded,low,2,34,0.065,0,high,1,right,1,high,1,1.19999999999999,154.199,155.399,1
1,m,26,right,speeded,low,2,35,0.068,1,high,0,left,0,low,0,1.68899999999999,158.698,160.387,1
1,m,26,right,speeded,low,2,36,0.052,0,low,1,right,0,high,1,1.84799999999998,163.246,165.094,1
1,m,26,right,speeded,low,2,37,0.052,1,low,0,left,1,low,0,1.971,167.795,169.766,1
1,m,26,right,speeded,low,2,38,0.049,0,low,0,left,1,low,0,2.048,172.326,174.374,1
1,m,26,right,speeded,low,2,39,0.049,1,low,0,left,1,low,0,2.03800000000001,176.941,178.979,1
1,m,26,right,speeded,low,2,40,0.052,0,low,1,right,0,high,1,1.84900000000002,181.539,183.388,1
1,m,26,right,speeded,low,2,41,0.074,1,high,1,right,1,high,1,1.31900000000002,186.021,187.34,1
1,m,26,right,speeded,low,2,42,0.055,0,low,1,right,0,high,1,1.78800000000001,190.57,192.358,1
1,m,26,right,speeded,low,2,43,0.071,1,high,0,left,0,low,0,1.84899999999999,195.151,197,1
1,m,26,right,speeded,low,2,44,0.049,0,low,1,right,0,high,1,2.24699999999999,199.65,201.897,1
1,m,26,right,speeded,low,2,45,0.068,1,high,1,right,1,high,1,2.005,204.514,206.519,1
1,m,26,right,speeded,low,2,46,0.074,0,high,1,right,1,high,1,2.541,209.078,211.619,1
1,m,26,right,speeded,low,2,47,0.052,1,low,1,right,0,high,1,1.44399999999999,214.208,215.652,1
1,m,26,right,speeded,low,2,48,0.055,0,low,1,right,0,high,1,1.857,218.756,220.613,1
1,m,26,right,speeded,low,2,49,0.074,1,high,0,left,0,low,0,1.97799999999998,223.305,225.283,1
1,m,26,right,speeded,low,2,50,0.052,0,low,0,left,1,low,0,2.29400000000001,227.886,230.18,1
1,m,26,right,speeded,low,2,51,0.052,1,low,0,left,1,low,0,2.23499999999999,232.733,234.968,1
1,m,26,right,speeded,low,2,52,0.046,0,low,0,left,1,low,0,1.64399999999998,237.58,239.224,1
1,m,26,right,speeded,low,2,53,0.068,1,high,1,right,1,high,1,1.749,242.129,243.878,1
1,m,26,right,speeded,low,2,54,0.065,0,high,1,right,1,high,1,2.52799999999999,246.661,249.189,1
1,m,26,right,speeded,low,2,55,0.046,1,low,0,left,1,low,0,1.8840000000000101,251.79,253.674,1
1,m,26,right,speeded,low,2,56,0.055,0,low,0,left,1,low,0,2.07799999999997,256.322,258.4,1
1,m,26,right,speeded,low,2,57,0.049,1,low,0,left,1,low,0,1.72800000000001,261.003,262.731,1
1,m,26,right,speeded,low,2,58,0.071,0,high,1,right,1,high,1,2.21100000000001,265.501,267.712,1
1,m,26,right,speeded,low,2,59,0.065,1,high,0,left,0,low,0,1.66999999999996,270.249,271.919,1
1,m,26,right,speeded,low,2,60,0.049,0,low,0,left,1,low,0,1.79399999999998,274.748,276.542,1
1,m,26,right,speeded,low,2,61,0.065,1,high,1,right,1,high,1,1.565,279.263,280.828,1
1,m,26,right,speeded,low,2,62,0.068,0,high,1,right,1,high,1,1.58699999999999,283.745,285.332,1
1,m,26,right,speeded,low,2,63,0.049,1,low,1,right,0,high,1,1.96100000000001,288.293,290.254,1
1,m,26,right,speeded,low,2,64,0.065,0,high,0,left,0,low,0,1.93000000000001,292.858,294.788,1
1,m,26,right,speeded,low,2,65,0.074,1,high,1,right,1,high,1,2.19800000000004,297.373,299.571,1
1,m,26,right,speeded,low,2,66,0.065,0,high,1,right,1,high,1,1.91399999999999,302.154,304.068,1
1,m,26,right,speeded,low,2,67,0.049,1,low,0,left,1,low,0,1.82799999999997,306.653,308.481,1
1,m,26,right,speeded,low,2,68,0.052,0,low,1,right,0,high,1,1.86500000000001,311.218,313.083,1
1,m,26,right,speeded,low,2,69,0.074,1,high,1,right,1,high,1,2.226,315.749,317.975,1
1,m,26,right,speeded,low,2,70,0.049,0,low,1,right,0,high,1,1.94400000000002,320.513,322.457,1
1,m,26,right,speeded,low,2,71,0.046,1,low,0,left,1,low,0,1.74399999999997,325.062,326.806,1
1,m,26,right,speeded,low,2,72,0.055,0,low,1,right,0,high,1,1.79599999999999,329.61,331.406,1
1,m,26,right,speeded,low,2,73,0.074,1,high,1,right,1,high,1,1.71300000000002,334.092,335.805,1
1,m,26,right,speeded,low,2,74,0.046,0,low,0,left,1,low,0,1.87699999999995,338.641,340.518,1
1,m,26,right,speeded,low,2,75,0.052,1,low,1,right,0,high,1,1.82400000000001,343.139,344.963,1
1,m,26,right,speeded,low,2,76,0.074,0,high,1,right,1,high,1,1.745,347.688,349.433,1
1,m,26,right,speeded,low,2,77,0.071,1,high,0,left,0,low,0,1.97199999999998,352.219,354.191,1
1,m,26,right,speeded,low,2,78,0.074,0,high,1,right,1,high,1,2.13600000000002,356.768,358.904,1
1,m,26,right,speeded,low,2,79,0.068,1,high,0,left,0,low,0,2.34500000000003,361.532,363.877,1
1,m,26,right,speeded,low,2,80,0.049,0,low,0,left,1,low,0,1.83200000000005,366.429,368.261,1
1,m,26,right,speeded,low,2,81,0.049,1,low,0,left,1,low,0,1.87200000000001,370.977,372.849,1
1,m,26,right,speeded,low,2,82,0.049,0,low,1,right,0,high,1,1.60300000000001,375.542,377.145,1
1,m,26,right,speeded,low,2,83,0.065,1,high,0,left,0,low,0,1.53500000000003,380.024,381.559,1
1,m,26,right,speeded,low,2,84,0.068,0,high,1,right,1,high,1,1.35699999999997,384.572,385.929,1
1,m,26,right,speeded,low,2,85,0.049,1,low,0,left,1,low,0,1.46700000000004,389.104,390.571,1
1,m,26,right,speeded,low,2,86,0.074,0,high,1,right,1,high,1,1.52699999999999,393.619,395.146,1
1,m,26,right,speeded,low,2,87,0.046,1,low,0,left,1,low,0,1.25999999999999,398.151,399.411,1
1,m,26,right,speeded,low,2,88,0.068,0,high,1,right,1,high,1,1.416,402.716,404.132,1
1,m,26,right,speeded,low,2,89,0.052,1,low,0,left,1,low,0,1.90900000000005,407.215,409.124,1
1,m,26,right,speeded,low,2,90,0.055,0,low,0,left,1,low,0,1.39600000000002,411.763,413.159,1
1,m,26,right,speeded,low,2,91,0.046,1,low,0,left,1,low,0,1.53300000000002,416.311,417.844,1
1,m,26,right,speeded,low,2,92,0.052,0,low,0,left,1,low,0,1.93799999999999,420.827,422.765,1
1,m,26,right,speeded,low,2,93,0.071,1,high,1,right,1,high,1,2.43900000000002,425.342,427.781,1
1,m,26,right,speeded,low,2,94,0.068,0,high,1,right,1,high,1,1.66800000000001,430.372,432.04,1
1,m,26,right,speeded,low,2,95,0.065,1,high,0,left,0,low,0,1.68299999999999,434.92,436.603,1
1,m,26,right,speeded,low,2,96,0.065,0,high,1,right,1,high,1,1.51400000000001,439.452,440.966,1
1,m,26,right,speeded,low,2,97,0.068,1,high,0,left,0,low,0,2.25299999999999,443.983,446.236,1
1,m,26,right,speeded,low,2,98,0.071,0,high,1,right,1,high,1,2.00999999999999,448.831,450.841,1
1,m,26,right,speeded,low,2,99,0.046,1,low,0,left,1,low,0,1.65500000000003,453.412,455.067,1
1,m,26,right,speeded,low,2,100,0.065,0,high,1,right,1,high,1,2.38099999999997,457.944,460.325,1
1,m,26,right,speeded,low,2,101,0.046,1,low,0,left,1,low,0,1.91799999999995,462.874,464.792,1
1,m,26,right,speeded,low,2,102,0.068,0,high,0,left,0,low,0,2.32900000000001,467.389,469.718,1
1,m,26,right,speeded,low,2,103,0.046,1,low,0,left,1,low,0,2.02999999999997,472.319,474.349,1
1,m,26,right,speeded,low,2,104,0.046,0,low,0,left,1,low,0,1.83599999999996,476.951,478.787,1
1,m,26,right,speeded,low,2,105,0.065,1,high,1,right,1,high,1,1.685,481.483,483.168,1
1,m,26,right,speeded,low,2,106,0.071,0,high,1,right,1,high,1,2.81999999999999,486.031,488.851,1
1,m,26,right,speeded,low,2,107,0.052,1,low,0,left,1,low,0,1.84899999999999,491.426,493.275,1
1,m,26,right,speeded,low,2,108,0.052,0,low,1,right,0,high,1,1.34200000000004,495.991,497.333,1
1,m,26,right,speeded,low,2,109,0.055,1,low,1,right,0,high,1,1.92900000000003,500.573,502.502,1
1,m,26,right,speeded,low,2,110,0.071,0,high,1,right,1,high,1,1.60599999999999,505.104,506.71,1
1,m,26,right,speeded,low,2,111,0.055,1,low,1,right,0,high,1,1.58699999999999,509.653,511.24,1
1,m,26,right,speeded,low,2,112,0.046,0,low,0,left,1,low,0,1.63900000000001,514.201,515.84,1
1,m,26,right,speeded,low,2,113,0.071,1,high,1,right,1,high,1,1.42100000000005,518.733,520.154,1
1,m,26,right,speeded,low,2,114,0.071,0,high,1,right,1,high,1,1.56600000000003,523.281,524.847,1
1,m,26,right,speeded,low,2,115,0.046,1,low,0,left,1,low,0,2.22800000000007,527.813,530.041,1
1,m,26,right,speeded,low,2,116,0.074,0,high,0,left,0,low,0,1.649,532.627,534.276,1
1,m,26,right,speeded,low,2,117,0.068,1,high,1,right,1,high,1,1.69099999999992,537.142,538.833,1
1,m,26,right,speeded,low,2,118,0.068,0,high,1,right,1,high,1,1.87599999999998,541.657,543.533,1
1,m,26,right,speeded,low,2,119,0.071,1,high,1,right,1,high,1,1.846,546.172,548.018,1
1,m,26,right,speeded,low,2,120,0.052,0,low,0,left,1,low,0,1.52500000000009,550.704,552.229,1
1,m,26,right,speeded,low,2,121,0.055,1,low,1,right,0,high,1,1.63999999999999,555.203,556.843,1
1,m,26,right,speeded,low,2,122,0.071,0,high,1,right,1,high,1,1.57100000000003,559.735,561.306,1
1,m,26,right,speeded,low,2,123,0.071,1,high,1,right,1,high,1,1.63300000000004,564.216,565.849,1
1,m,26,right,speeded,low,2,124,0.068,0,high,0,left,0,low,0,1.61399999999992,568.715,570.329,1
1,m,26,right,speeded,low,2,125,0.074,1,high,1,right,1,high,1,1.84699999999998,573.28,575.127,1
1,m,26,right,speeded,low,2,126,0.055,0,low,1,right,0,high,1,2.07299999999998,577.812,579.885,1
1,m,26,right,speeded,low,2,127,0.055,1,low,0,left,1,low,0,2.00999999999999,582.443,584.453,1
1,m,26,right,speeded,low,2,128,0.065,0,high,1,right,1,high,1,1.56699999999989,587.041,588.608,1
1,m,26,right,speeded,low,3,1,0.049,1,low,0,left,1,low,0,2.474,4.079,6.553,1
1,m,26,right,speeded,low,3,2,0.071,0,high,0,left,0,low,0,1.677,9.142,10.819,1
1,m,26,right,speeded,low,3,3,0.074,1,high,1,right,1,high,1,2.142,13.707,15.849,1
1,m,26,right,speeded,low,3,4,0.046,0,low,0,left,1,low,0,2.128,18.438,20.566,1
1,m,26,right,speeded,low,3,5,0.065,1,high,1,right,1,high,1,1.402,23.135,24.537,1
1,m,26,right,speeded,low,3,6,0.055,0,low,0,left,1,low,0,1.527,27.65,29.177,1
1,m,26,right,speeded,low,3,7,0.071,1,high,1,right,1,high,1,1.749,32.132,33.881,1
1,m,26,right,speeded,low,3,8,0.071,0,high,1,right,1,high,1,1.8,36.664,38.464,1
1,m,26,right,speeded,low,3,9,0.052,1,low,0,left,1,low,0,1.542,41.196,42.738,1
1,m,26,right,speeded,low,3,10,0.046,0,low,0,left,1,low,0,1.9,45.728,47.628,1
1,m,26,right,speeded,low,3,11,0.049,1,low,1,right,0,high,1,2.223,50.26,52.483,1
1,m,26,right,speeded,low,3,12,0.055,0,low,1,right,0,high,1,1.961,55.024,56.985,1
1,m,26,right,speeded,low,3,13,0.049,1,low,1,right,0,high,1,2.469,59.555,62.024,1
1,m,26,right,speeded,low,3,14,0.052,0,low,0,left,1,low,0,1.815,64.602,66.417,1
1,m,26,right,speeded,low,3,15,0.049,1,low,0,left,1,low,0,1.74600000000001,69.1,70.846,1
1,m,26,right,speeded,low,3,16,0.052,0,low,0,left,1,low,0,2.05499999999999,73.632,75.687,1
1,m,26,right,speeded,low,3,17,0.068,1,high,1,right,1,high,1,1.453,78.264,79.717,1
1,m,26,right,speeded,low,3,18,0.046,0,low,0,left,1,low,0,1.449,82.746,84.195,1
1,m,26,right,speeded,low,3,19,0.071,1,high,1,right,1,high,1,1.48400000000001,87.261,88.745,1
1,m,26,right,speeded,low,3,20,0.065,0,high,1,right,1,high,1,1.581,91.792,93.373,1
1,m,26,right,speeded,low,3,21,0.052,1,low,0,left,1,low,0,1.53899999999999,96.308,97.847,1
1,m,26,right,speeded,low,3,22,0.046,0,low,0,left,1,low,0,1.93300000000001,100.856,102.789,1
1,m,26,right,speeded,low,3,23,0.055,1,low,0,left,1,low,0,2.026,105.388,107.414,1
1,m,26,right,speeded,low,3,24,0.074,0,high,1,right,1,high,1,1.62,109.969,111.589,1
1,m,26,right,speeded,low,3,25,0.046,1,low,0,left,1,low,0,1.497,114.551,116.048,1
1,m,26,right,speeded,low,3,26,0.074,0,high,1,right,1,high,1,1.426,119.066,120.492,1
1,m,26,right,speeded,low,3,27,0.068,1,high,0,left,0,low,0,1.886,123.598,125.484,1
1,m,26,right,speeded,low,3,28,0.068,0,high,1,right,1,high,1,1.98299999999998,128.163,130.146,1
1,m,26,right,speeded,low,3,29,0.068,1,high,0,left,0,low,0,1.97499999999999,132.728,134.703,1
1,m,26,right,speeded,low,3,30,0.055,0,low,0,left,1,low,0,1.89499999999998,137.276,139.171,1
1,m,26,right,speeded,low,3,31,0.074,1,high,1,right,1,high,1,1.50999999999999,141.775,143.285,1
1,m,26,right,speeded,low,3,32,0.046,0,low,0,left,1,low,0,2.29300000000001,146.29,148.583,1
1,m,26,right,speeded,low,3,33,0.074,1,high,1,right,1,high,1,1.64400000000001,151.154,152.798,1
1,m,26,right,speeded,low,3,34,0.049,0,low,0,left,1,low,0,1.46700000000001,155.636,157.103,1
1,m,26,right,speeded,low,3,35,0.065,1,high,1,right,1,high,1,1.43199999999999,160.151,161.583,1
1,m,26,right,speeded,low,3,36,0.074,0,high,1,right,1,high,1,1.39400000000001,164.683,166.077,1
1,m,26,right,speeded,low,3,37,0.074,1,high,1,right,1,high,1,1.679,169.181,170.86,1
1,m,26,right,speeded,low,3,38,0.046,0,low,0,left,1,low,0,1.614,173.696,175.31,1
1,m,26,right,speeded,low,3,39,0.068,1,high,1,right,1,high,1,1.73599999999999,178.228,179.964,1
1,m,26,right,speeded,low,3,40,0.065,0,high,1,right,1,high,1,1.74200000000002,182.76,184.502,1
1,m,26,right,speeded,low,3,41,0.052,1,low,0,left,1,low,0,1.44500000000002,187.325,188.77,1
1,m,26,right,speeded,low,3,42,0.046,0,low,0,left,1,low,0,1.80799999999999,191.84,193.648,1
1,m,26,right,speeded,low,3,43,0.068,1,high,0,left,0,low,0,1.827,196.372,198.199,1
1,m,26,right,speeded,low,3,44,0.065,0,high,1,right,1,high,1,1.637,200.904,202.541,1
1,m,26,right,speeded,low,3,45,0.065,1,high,1,right,1,high,1,1.46099999999998,205.419,206.88,1
1,m,26,right,speeded,low,3,46,0.071,0,high,1,right,1,high,1,1.56999999999999,209.967,211.537,1
1,m,26,right,speeded,low,3,47,0.074,1,high,0,left,0,low,0,1.69400000000002,214.515,216.209,1
1,m,26,right,speeded,low,3,48,0.074,0,high,1,right,1,high,1,2.405,219.064,221.469,1
1,m,26,right,speeded,low,3,49,0.049,1,low,0,left,1,low,0,1.71799999999999,224.06,225.778,1
1,m,26,right,speeded,low,3,50,0.065,0,high,1,right,1,high,1,2.15699999999998,228.592,230.749,1
1,m,26,right,speeded,low,3,51,0.046,1,low,0,left,1,low,0,1.64699999999999,233.323,234.97,1
1,m,26,right,speeded,low,3,52,0.065,0,high,1,right,1,high,1,2.53800000000001,237.855,240.393,1
1,m,26,right,speeded,low,3,53,0.074,1,high,1,right,1,high,1,1.959,242.901,244.86,1
1,m,26,right,speeded,low,3,54,0.071,0,high,1,right,1,high,1,1.59700000000001,247.45,249.047,1
1,m,26,right,speeded,low,3,55,0.052,1,low,0,left,1,low,0,1.655,251.981,253.636,1
1,m,26,right,speeded,low,3,56,0.068,0,high,1,right,1,high,1,1.89699999999999,256.497,258.394,1
1,m,26,right,speeded,low,3,57,0.055,1,low,0,left,1,low,0,2.86399999999998,261.028,263.892,1
1,m,26,right,speeded,low,3,58,0.052,0,low,0,left,1,low,0,1.35700000000003,266.44,267.797,1
1,m,26,right,speeded,low,3,59,0.055,1,low,0,left,1,low,0,1.74799999999999,271.005,272.753,1
1,m,26,right,speeded,low,3,60,0.049,0,low,0,left,1,low,0,1.52300000000002,275.553,277.076,1
1,m,26,right,speeded,low,3,61,0.071,1,high,1,right,1,high,1,1.35500000000002,280.085,281.44,1
1,m,26,right,speeded,low,3,62,0.068,0,high,1,right,1,high,1,1.05400000000003,284.65,285.704,1
1,m,26,right,speeded,low,3,63,0.049,1,low,0,left,1,low,0,1.24299999999999,289.182,290.425,1
1,m,26,right,speeded,low,3,64,0.049,0,low,0,left,1,low,0,1.34400000000005,293.763,295.107,1
1,m,26,right,speeded,low,3,65,0.068,1,high,1,right,1,high,1,0.980999999999995,298.345,299.326,1
1,m,26,right,speeded,low,3,66,0.071,0,high,1,right,1,high,1,1.21999999999997,302.86,304.08,1
1,m,26,right,speeded,low,3,67,0.052,1,low,0,left,1,low,0,1.44,307.408,308.848,1
1,m,26,right,speeded,low,3,68,0.068,0,high,1,right,1,high,1,1.17000000000002,311.957,313.127,1
1,m,26,right,speeded,low,3,69,0.065,1,high,0,left,0,low,0,1.30700000000002,316.489,317.796,1
1,m,26,right,speeded,low,3,70,0.068,0,high,1,right,1,high,1,1.13300000000004,321.037,322.17,1
1,m,26,right,speeded,low,3,71,0.055,1,low,1,right,0,high,1,1.55799999999999,325.585,327.143,1
1,m,26,right,speeded,low,3,72,0.052,0,low,0,left,1,low,0,1.483,330.1,331.583,1
1,m,26,right,speeded,low,3,73,0.065,1,high,1,right,1,high,1,1.36000000000001,334.649,336.009,1
1,m,26,right,speeded,low,3,74,0.052,0,low,0,left,1,low,0,1.41000000000003,339.131,340.541,1
1,m,26,right,speeded,low,3,75,0.046,1,low,0,left,1,low,0,1.50299999999999,343.696,345.199,1
1,m,26,right,speeded,low,3,76,0.074,0,high,1,right,1,high,1,1.3659999999999899,348.244,349.61,1
1,m,26,right,speeded,low,3,77,0.074,1,high,1,right,1,high,1,1.45799999999997,352.759,354.217,1
1,m,26,right,speeded,low,3,78,0.071,0,high,1,right,1,high,1,1.32099999999997,357.324,358.645,1
1,m,26,right,speeded,low,3,79,0.055,1,low,0,left,1,low,0,1.517,361.839,363.356,1
1,m,26,right,speeded,low,3,80,0.071,0,high,1,right,1,high,1,1.53299999999996,366.355,367.888,1
1,m,26,right,speeded,low,3,81,0.071,1,high,1,right,1,high,1,1.64299999999997,370.886,372.529,1
1,m,26,right,speeded,low,3,82,0.046,0,low,0,both,1,low,0,0.771999999999991,375.368,376.14,1
1,m,26,right,speeded,low,3,83,0.055,1,low,0,left,1,low,0,1.959,379.917,381.876,1
1,m,26,right,speeded,low,3,84,0.049,0,low,0,left,1,low,0,1.86899999999997,384.482,386.351,1
1,m,26,right,speeded,low,3,85,0.049,1,low,0,left,1,low,0,1.90600000000001,389.013,390.919,1
1,m,26,right,speeded,low,3,86,0.065,0,high,1,right,1,high,1,1.67699999999996,393.545,395.222,1
1,m,26,right,speeded,low,3,87,0.071,1,high,1,right,1,high,1,1.65100000000001,398.094,399.745,1
1,m,26,right,speeded,low,3,88,0.065,0,high,0,left,0,low,0,1.55000000000001,402.592,404.142,1
1,m,26,right,speeded,low,3,89,0.046,1,low,0,left,1,low,0,2.012,407.141,409.153,1
1,m,26,right,speeded,low,3,90,0.068,0,high,1,right,1,high,1,1.904,411.689,413.593,1
1,m,26,right,speeded,low,3,91,0.071,1,high,1,right,1,high,1,1.77300000000002,416.221,417.994,1
1,m,26,right,speeded,low,3,92,0.049,0,low,0,left,1,low,0,1.60900000000004,420.736,422.345,1
1,m,26,right,speeded,low,3,93,0.046,1,low,0,left,1,low,0,1.49400000000003,425.234,426.728,1
1,m,26,right,speeded,low,3,94,0.055,0,low,0,left,1,low,0,1.654,429.783,431.437,1
1,m,26,right,speeded,low,3,95,0.071,1,high,1,right,1,high,1,1.43599999999998,434.315,435.751,1
1,m,26,right,speeded,low,3,96,0.055,0,low,0,left,1,low,0,1.42000000000002,438.846,440.266,1
1,m,26,right,speeded,low,3,97,0.052,1,low,0,left,1,low,0,1.35500000000002,443.378,444.733,1
1,m,26,right,speeded,low,3,98,0.055,0,low,0,left,1,low,0,1.56399999999996,447.927,449.491,1
1,m,26,right,speeded,low,3,99,0.055,1,low,0,left,1,low,0,1.33100000000002,452.442,453.773,1
1,m,26,right,speeded,low,3,100,0.065,0,high,1,right,1,high,1,1.51799999999997,457.007,458.525,1
1,m,26,right,speeded,low,3,101,0.052,1,low,0,left,1,low,0,1.404,461.489,462.893,1
1,m,26,right,speeded,low,3,102,0.068,0,high,1,right,1,high,1,1.48900000000003,466.02,467.509,1
1,m,26,right,speeded,low,3,103,0.065,1,high,1,right,1,high,1,1.44,470.552,471.992,1
1,m,26,right,speeded,low,3,104,0.052,0,low,0,left,1,low,0,1.92899999999997,475.067,476.996,1
1,m,26,right,speeded,low,3,105,0.074,1,high,1,right,1,high,1,2.31999999999999,479.632,481.952,1
1,m,26,right,speeded,low,3,106,0.074,0,high,1,right,1,high,1,2.33999999999997,484.562,486.902,1
1,m,26,right,speeded,low,3,107,0.055,1,low,0,left,1,low,0,1.69099999999997,489.476,491.167,1
1,m,26,right,speeded,low,3,108,0.052,0,low,0,left,1,low,0,1.71600000000001,494.024,495.74,1
1,m,26,right,speeded,low,3,109,0.068,1,high,1,right,1,high,1,1.33800000000002,498.573,499.911,1
1,m,26,right,speeded,low,3,110,0.049,0,low,0,left,1,low,0,1.58500000000004,503.121,504.706,1
1,m,26,right,speeded,low,3,111,0.068,1,high,1,right,1,high,1,2.15900000000005,507.686,509.845,1
1,m,26,right,speeded,low,3,112,0.071,0,high,1,right,1,high,1,1.73000000000002,512.384,514.114,1
1,m,26,right,speeded,low,3,113,0.046,1,low,0,left,1,low,0,1.68900000000008,516.949,518.638,1
1,m,26,right,speeded,low,3,114,0.055,0,low,1,right,0,high,1,2.072,521.514,523.586,1
1,m,26,right,speeded,low,3,115,0.065,1,high,1,right,1,high,1,1.68700000000001,526.145,527.832,1
1,m,26,right,speeded,low,3,116,0.049,0,low,0,left,1,low,0,1.45900000000006,530.727,532.186,1
1,m,26,right,speeded,low,3,117,0.046,1,low,0,left,1,low,0,1.52600000000007,535.242,536.768,1
1,m,26,right,speeded,low,3,118,0.074,0,high,1,right,1,high,1,1.25099999999998,539.74,540.991,1
1,m,26,right,speeded,low,3,119,0.052,1,low,0,left,1,low,0,1.4909999999999899,544.272,545.763,1
1,m,26,right,speeded,low,3,120,0.052,0,low,0,left,1,low,0,1.48200000000008,548.771,550.253,1
1,m,26,right,speeded,low,3,121,0.046,1,low,0,left,1,low,0,1.62300000000005,553.319,554.942,1
1,m,26,right,speeded,low,3,122,0.074,0,high,1,right,1,high,1,1.44100000000003,557.884,559.325,1
1,m,26,right,speeded,low,3,123,0.049,1,low,0,left,1,low,0,1.34799999999996,562.416,563.764,1
1,m,26,right,speeded,low,3,124,0.049,0,low,1,right,0,high,1,2.17399999999998,566.964,569.138,1
1,m,26,right,speeded,low,3,125,0.071,1,high,1,right,1,high,1,1.54899999999998,571.712,573.261,1
1,m,26,right,speeded,low,3,126,0.068,0,high,1,right,1,high,1,1.56200000000001,576.244,577.806,1
1,m,26,right,speeded,low,3,127,0.065,1,high,1,right,1,high,1,1.58699999999999,580.792,582.379,1
1,m,26,right,speeded,low,3,128,0.055,0,low,0,left,1,low,0,2.02300000000002,585.307,587.33,1
1,m,26,right,speeded,low,4,1,0.074,1,high,1,right,1,high,1,1.575,3.147,4.722,1
1,m,26,right,speeded,low,4,2,0.055,0,low,0,left,1,low,0,1.428,7.679,9.107,1
1,m,26,right,speeded,low,4,3,0.055,1,low,0,left,1,low,0,1.883,12.194,14.077,1
1,m,26,right,speeded,low,4,4,0.049,0,low,1,right,0,high,1,1.159,16.709,17.868,1
1,m,26,right,speeded,low,4,5,0.055,1,low,1,right,0,high,1,1.382,21.274,22.656,1
1,m,26,right,speeded,low,4,6,0.074,0,high,1,right,1,high,1,1.098,25.823,26.921,1
1,m,26,right,speeded,low,4,7,0.074,1,high,0,left,0,low,0,2.03,30.354,32.384,1
1,m,26,right,speeded,low,4,8,0.046,0,low,0,left,1,low,0,1.424,34.969,36.393,1
1,m,26,right,speeded,low,4,9,0.074,1,high,1,right,1,high,1,0.461999999999996,39.518,39.98,1
1,m,26,right,speeded,low,4,10,0.071,0,high,0,left,0,low,0,0.984000000000002,44,44.984,1
1,m,26,right,speeded,low,4,11,0.071,1,high,0,left,0,low,0,1.102,48.531,49.633,1
1,m,26,right,speeded,low,4,12,0.068,0,high,1,right,1,high,1,1.55399999999999,53.063,54.617,1
1,m,26,right,speeded,low,4,13,0.046,1,low,0,left,1,low,0,1.695,57.578,59.273,1
1,m,26,right,speeded,low,4,14,0.068,0,high,1,right,1,high,1,1.172,62.093,63.265,1
1,m,26,right,speeded,low,4,15,0.046,1,low,0,left,1,low,0,1.637,66.592,68.229,1
1,m,26,right,speeded,low,4,16,0.074,0,high,1,right,1,high,1,1.02600000000001,71.124,72.15,1
1,m,26,right,speeded,low,4,17,0.052,1,low,0,left,1,low,0,1.38000000000001,75.639,77.019,1
1,m,26,right,speeded,low,4,18,0.074,0,high,1,right,1,high,1,1.093,80.154,81.247,1
1,m,26,right,speeded,low,4,19,0.068,1,high,1,right,1,high,1,1.01499999999999,84.686,85.701,1
1,m,26,right,speeded,low,4,20,0.071,0,high,0,left,0,low,0,1.01000000000001,89.234,90.244,1
1,m,26,right,speeded,low,4,21,0.052,1,low,0,left,1,low,0,1.19,93.749,94.939,1
1,m,26,right,speeded,low,4,22,0.052,0,low,1,right,0,high,1,0.986999999999995,98.281,99.268,1
1,m,26,right,speeded,low,4,23,0.046,1,low,0,left,1,low,0,1.41600000000001,102.764,104.18,1
1,m,26,right,speeded,low,4,24,0.052,0,low,1,right,0,high,1,1.072,107.262,108.334,1
1,m,26,right,speeded,low,4,25,0.068,1,high,1,right,1,high,1,0.899000000000001,111.81,112.709,1
1,m,26,right,speeded,low,4,26,0.071,0,high,1,right,1,high,1,1.05500000000001,116.342,117.397,1
1,m,26,right,speeded,low,4,27,0.052,1,low,0,left,1,low,0,1.503,120.874,122.377,1
1,m,26,right,speeded,low,4,28,0.052,0,low,0,left,1,low,0,1.53,125.405,126.935,1
1,m,26,right,speeded,low,4,29,0.049,1,low,0,left,1,low,0,1.40100000000001,129.921,131.322,1
1,m,26,right,speeded,low,4,30,0.046,0,low,1,right,0,high,1,0.846000000000004,134.452,135.298,1
1,m,26,right,speeded,low,4,31,0.068,1,high,1,right,1,high,1,1.327,138.984,140.311,1
1,m,26,right,speeded,low,4,32,0.074,0,high,1,right,1,high,1,1.13399999999999,143.449,144.583,1
1,m,26,right,speeded,low,4,33,0.049,1,low,0,left,1,low,0,2.01400000000001,147.998,150.012,1
1,m,26,right,speeded,low,4,34,0.071,0,high,1,right,1,high,1,1.49000000000001,152.53,154.02,1
1,m,26,right,speeded,low,4,35,0.052,1,low,0,left,1,low,0,1.35300000000001,157.012,158.365,1
1,m,26,right,speeded,low,4,36,0.049,0,low,0,left,1,low,0,1.226,161.494,162.72,1
1,m,26,right,speeded,low,4,37,0.046,1,low,1,right,0,high,1,0.935000000000002,165.976,166.911,1
1,m,26,right,speeded,low,4,38,0.049,0,low,0,left,1,low,0,1.31,170.457,171.767,1
1,m,26,right,speeded,low,4,39,0.065,1,high,1,right,1,high,1,1.298,174.939,176.237,1
1,m,26,right,speeded,low,4,40,0.046,0,low,0,left,1,low,0,1.34800000000001,179.421,180.769,1
1,m,26,right,speeded,low,4,41,0.055,1,low,0,left,1,low,0,1.68200000000002,183.92,185.602,1
1,m,26,right,speeded,low,4,42,0.046,0,low,0,left,1,low,0,1.33399999999997,188.419,189.753,1
1,m,26,right,speeded,low,4,43,0.049,1,low,0,left,1,low,0,1.709,192.901,194.61,1
1,m,26,right,speeded,low,4,44,0.065,0,high,1,right,1,high,1,1.54999999999998,197.383,198.933,1
1,m,26,right,speeded,low,4,45,0.065,1,high,1,right,1,high,1,2.25,201.831,204.081,1
1,m,26,right,speeded,low,4,46,0.055,0,low,0,left,1,low,0,1.88199999999998,206.645,208.527,1
1,m,26,right,speeded,low,4,47,0.055,1,low,0,left,1,low,0,1.63900000000001,211.194,212.833,1
1,m,26,right,speeded,low,4,48,0.052,0,low,0,left,1,low,0,1.28299999999999,215.692,216.975,1
1,m,26,right,speeded,low,4,49,0.049,1,low,0,left,1,low,0,1.523,220.241,221.764,1
1,m,26,right,speeded,low,4,50,0.049,0,low,0,left,1,low,0,1.37300000000002,224.772,226.145,1
1,m,26,right,speeded,low,4,51,0.065,1,high,1,right,1,high,1,1.381,229.271,230.652,1
1,m,26,right,speeded,low,4,52,0.052,0,low,0,left,1,low,0,2.06700000000001,233.819,235.886,1
1,m,26,right,speeded,low,4,53,0.074,1,high,1,right,1,high,1,1.596,238.434,240.03,1
1,m,26,right,speeded,low,4,54,0.049,0,low,1,right,0,high,1,1.898,242.982,244.88,1
1,m,26,right,speeded,low,4,55,0.049,1,low,0,left,1,low,0,1.482,247.514,248.996,1
1,m,26,right,speeded,low,4,56,0.068,0,high,1,right,1,high,1,1.28900000000002,252.029,253.318,1
1,m,26,right,speeded,low,4,57,0.065,1,high,1,right,1,high,1,1.529,256.545,258.074,1
1,m,26,right,speeded,low,4,58,0.065,0,high,1,right,1,high,1,1.31799999999998,261.093,262.411,1
1,m,26,right,speeded,low,4,59,0.065,1,high,1,right,1,high,1,1.04399999999998,265.591,266.635,1
1,m,26,right,speeded,low,4,60,0.046,0,low,0,left,1,low,0,1.25799999999998,270.156,271.414,1
1,m,26,right,speeded,low,4,61,0.052,1,low,0,left,1,low,0,1.214,274.705,275.919,1
1,m,26,right,speeded,low,4,62,0.055,0,low,0,left,1,low,0,1.6159999999999899,279.22,280.836,1
1,m,26,right,speeded,low,4,63,0.055,1,low,1,right,0,high,1,0.94599999999997,283.802,284.748,1
1,m,26,right,speeded,low,4,64,0.049,0,low,1,right,0,high,1,0.738999999999976,288.35,289.089,1
1,m,26,right,speeded,low,4,65,0.065,1,high,1,right,1,high,1,1.26900000000001,292.931,294.2,1
1,m,26,right,speeded,low,4,66,0.055,0,low,1,right,0,high,1,1.86000000000001,297.496,299.356,1
1,m,26,right,speeded,low,4,67,0.049,1,low,0,left,1,low,0,1.44599999999997,301.978,303.424,1
1,m,26,right,speeded,low,4,68,0.068,0,high,1,right,1,high,1,1.36700000000002,306.543,307.91,1
1,m,26,right,speeded,low,4,69,0.074,1,high,0,left,0,low,0,1.5,311.092,312.592,1
1,m,26,right,speeded,low,4,70,0.055,0,low,1,right,0,high,1,1.82100000000003,315.59,317.411,1
1,m,26,right,speeded,low,4,71,0.046,1,low,0,left,1,low,0,1.76799999999997,320.122,321.89,1
1,m,26,right,speeded,low,4,72,0.052,0,low,0,left,1,low,0,2.13799999999998,324.637,326.775,1
1,m,26,right,speeded,low,4,73,0.068,1,high,1,right,1,high,1,1.49299999999999,329.368,330.861,1
1,m,26,right,speeded,low,4,74,0.055,0,low,0,left,1,low,0,1.42500000000001,333.933,335.358,1
1,m,26,right,speeded,low,4,75,0.052,1,low,0,left,1,low,0,1.39300000000003,338.448,339.841,1
1,m,26,right,speeded,low,4,76,0.068,0,high,1,right,1,high,1,1.06799999999998,342.98,344.048,1
1,m,26,right,speeded,low,4,77,0.065,1,high,0,left,0,low,0,1.209,347.512,348.721,1
1,m,26,right,speeded,low,4,78,0.049,0,low,0,left,1,low,0,1.851,352.027,353.878,1
1,m,26,right,speeded,low,4,79,0.071,1,high,1,right,1,high,1,1,356.559,357.559,1
1,m,26,right,speeded,low,4,80,0.052,0,low,1,right,0,high,1,0.956999999999994,361.107,362.064,1
1,m,26,right,speeded,low,4,81,0.049,1,low,0,left,1,low,0,1.46699999999998,365.622,367.089,1
1,m,26,right,speeded,low,4,82,0.071,0,high,1,right,1,high,1,0.903999999999996,370.121,371.025,1
1,m,26,right,speeded,low,4,83,0.055,1,low,0,left,1,low,0,1.34699999999998,374.653,376,1
1,m,26,right,speeded,low,4,84,0.065,0,high,1,right,1,high,1,1.096,379.201,380.297,1
1,m,26,right,speeded,low,4,85,0.071,1,high,0,left,0,low,0,1.96500000000003,383.7,385.665,1
1,m,26,right,speeded,low,4,86,0.065,0,high,1,right,1,high,1,1.61700000000002,388.265,389.882,1
1,m,26,right,speeded,low,4,87,0.055,1,low,0,left,1,low,0,1.66500000000002,392.813,394.478,1
1,m,26,right,speeded,low,4,88,0.052,0,low,0,left,1,low,0,1.29899999999998,397.345,398.644,1
1,m,26,right,speeded,low,4,89,0.065,1,high,0,left,0,low,0,1.577,401.86,403.437,1
1,m,26,right,speeded,low,4,90,0.071,0,high,1,right,1,high,1,1.41899999999998,406.425,407.844,1
1,m,26,right,speeded,low,4,91,0.074,1,high,0,left,0,low,0,1.97399999999999,410.94,412.914,1
1,m,26,right,speeded,low,4,92,0.055,0,low,0,left,1,low,0,1.55799999999999,415.522,417.08,1
1,m,26,right,speeded,low,4,93,0.049,1,low,0,left,1,low,0,1.52600000000001,420.087,421.613,1
1,m,26,right,speeded,low,4,94,0.065,0,high,1,right,1,high,1,1.64300000000003,424.618,426.261,1
1,m,26,right,speeded,low,4,95,0.074,1,high,0,left,0,low,0,1.52000000000004,429.2,430.72,1
1,m,26,right,speeded,low,4,96,0.046,0,low,0,left,1,low,0,1.673,433.748,435.421,1
1,m,26,right,speeded,low,4,97,0.052,1,low,0,left,1,low,0,1.26299999999998,438.247,439.51,1
1,m,26,right,speeded,low,4,98,0.074,0,high,1,right,1,high,1,1.45999999999998,442.762,444.222,1
1,m,26,right,speeded,low,4,99,0.068,1,high,1,right,1,high,1,1.71800000000002,447.294,449.012,1
1,m,26,right,speeded,low,4,100,0.071,0,high,1,right,1,high,1,1.72899999999998,451.826,453.555,1
1,m,26,right,speeded,low,4,101,0.071,1,high,1,right,1,high,1,1.73399999999998,456.374,458.108,1
1,m,26,right,speeded,low,4,102,0.068,0,high,1,right,1,high,1,1.56099999999998,460.856,462.417,1
1,m,26,right,speeded,low,4,103,0.046,1,low,0,left,1,low,0,1.44499999999999,465.371,466.816,1
1,m,26,right,speeded,low,4,104,0.071,0,high,1,right,1,high,1,1.49599999999998,469.92,471.416,1
1,m,26,right,speeded,low,4,105,0.071,1,high,0,left,0,low,0,1.18299999999999,474.435,475.618,1
1,m,26,right,speeded,low,4,106,0.065,0,high,1,right,1,high,1,1.31400000000002,478.983,480.297,1
1,m,26,right,speeded,low,4,107,0.046,1,low,0,left,1,low,0,1.41399999999999,483.531,484.945,1
1,m,26,right,speeded,low,4,108,0.049,0,low,0,left,1,low,0,2.173,488.047,490.22,1
1,m,26,right,speeded,low,4,109,0.055,1,low,0,left,1,low,0,1.63200000000001,492.827,494.459,1
1,m,26,right,speeded,low,4,110,0.055,0,low,0,left,1,low,0,1.47899999999998,497.326,498.805,1
1,m,26,right,speeded,low,4,111,0.071,1,high,1,right,1,high,1,1.54699999999997,501.891,503.438,1
1,m,26,right,speeded,low,4,112,0.068,0,high,1,right,1,high,1,1.47899999999998,506.423,507.902,1
1,m,26,right,speeded,low,4,113,0.052,1,low,0,left,1,low,0,1.56100000000004,510.938,512.499,1
1,m,26,right,speeded,low,4,114,0.074,0,high,1,right,1,high,1,1.41600000000005,515.486,516.902,1
1,m,26,right,speeded,low,4,115,0.071,1,high,1,right,1,high,1,1.53600000000006,520.001,521.537,1
1,m,26,right,speeded,low,4,116,0.065,0,high,1,right,1,high,1,1.55200000000002,524.533,526.085,1
1,m,26,right,speeded,low,4,117,0.068,1,high,1,right,1,high,1,1.59400000000005,529.048,530.642,1
1,m,26,right,speeded,low,4,118,0.046,0,low,0,left,1,low,0,1.59500000000003,533.563,535.158,1
1,m,26,right,speeded,low,4,119,0.068,1,high,1,right,1,high,1,1.77999999999997,538.128,539.908,1
1,m,26,right,speeded,low,4,120,0.068,0,high,1,right,1,high,1,1.20000000000005,542.693,543.893,1
1,m,26,right,speeded,low,4,121,0.074,1,high,0,left,0,low,0,1.73400000000004,547.209,548.943,1
1,m,26,right,speeded,low,4,122,0.074,0,high,1,right,1,high,1,1.71199999999999,551.774,553.486,1
1,m,26,right,speeded,low,4,123,0.071,1,high,1,right,1,high,1,1.47200000000009,556.305,557.777,1
1,m,26,right,speeded,low,4,124,0.065,0,high,0,left,0,low,0,2.16099999999994,560.821,562.982,1
1,m,26,right,speeded,low,4,125,0.046,1,low,0,left,1,low,0,1.57299999999998,565.634,567.207,1
1,m,26,right,speeded,low,4,126,0.074,0,high,1,right,1,high,1,2.053,570.199,572.252,1
1,m,26,right,speeded,low,4,127,0.068,1,high,0,left,0,low,0,1.952,574.814,576.766,1
1,m,26,right,speeded,low,4,128,0.046,0,low,0,left,1,low,0,1.54199999999992,579.363,580.905,1
1,m,26,right,accuracy,low,1,1,0.046,1,low,0,left,1,low,0,2.042,103.383,105.425,1
1,m,26,right,accuracy,low,1,2,0.052,0,low,0,left,1,low,0,2.25700000000001,108.014,110.271,1
1,m,26,right,accuracy,low,1,3,0.065,1,high,1,right,1,high,1,1.60000000000001,112.812,114.412,1
1,m,26,right,accuracy,low,1,4,0.074,0,high,1,right,1,high,1,1.679,117.31,118.989,1
1,m,26,right,accuracy,low,1,5,0.065,1,high,0,left,0,low,0,2.386,121.842,124.228,1
1,m,26,right,accuracy,low,1,6,0.055,0,low,0,left,1,low,0,1.62199999999999,126.805,128.427,1
1,m,26,right,accuracy,low,1,7,0.065,1,high,1,right,1,high,1,1.81299999999999,131.354,133.167,1
1,m,26,right,accuracy,low,1,8,0.046,0,low,0,left,1,low,0,2.03700000000001,135.852,137.889,1
1,m,26,right,accuracy,low,1,9,0.071,1,high,0,left,0,low,0,1.809,140.417,142.226,1
1,m,26,right,accuracy,low,1,10,0.068,0,high,1,right,1,high,1,1.76700000000002,144.932,146.699,1
1,m,26,right,accuracy,low,1,11,0.074,1,high,1,right,1,high,1,2.01299999999998,149.431,151.444,1
1,m,26,right,accuracy,low,1,12,0.068,0,high,1,right,1,high,1,1.88500000000002,153.963,155.848,1
1,m,26,right,accuracy,low,1,13,0.046,1,low,0,left,1,low,0,2.203,158.445,160.648,1
1,m,26,right,accuracy,low,1,14,0.068,0,high,1,right,1,high,1,2.25899999999999,163.192,165.451,1
1,m,26,right,accuracy,low,1,15,0.049,1,low,1,right,0,high,1,2.352,168.006,170.358,1
1,m,26,right,accuracy,low,1,16,0.071,0,high,1,right,1,high,1,2.149,172.887,175.036,1
1,m,26,right,accuracy,low,1,17,0.074,1,high,1,right,1,high,1,1.91400000000002,177.551,179.465,1
1,m,26,right,accuracy,low,1,18,0.074,0,high,1,right,1,high,1,1.703,182.033,183.736,1
1,m,26,right,accuracy,low,1,19,0.055,1,low,0,left,1,low,0,1.60100000000003,186.515,188.116,1
1,m,26,right,accuracy,low,1,20,0.055,0,low,0,left,1,low,0,2.065,191.03,193.095,1
1,m,26,right,accuracy,low,1,21,0.071,1,high,1,right,1,high,1,2.21799999999999,195.678,197.896,1
1,m,26,right,accuracy,low,1,22,0.071,0,high,0,left,0,low,0,1.84999999999999,200.459,202.309,1
1,m,26,right,accuracy,low,1,23,0.071,1,high,1,right,1,high,1,2.477,204.941,207.418,1
1,m,26,right,accuracy,low,1,24,0.046,0,low,0,left,1,low,0,2.07999999999998,209.971,212.051,1
1,m,26,right,accuracy,low,1,25,0.049,1,low,0,left,1,low,0,1.994,214.602,216.596,1
1,m,26,right,accuracy,low,1,26,0.052,0,low,0,left,1,low,0,2.209,219.15,221.359,1
1,m,26,right,accuracy,low,1,27,0.068,1,high,1,right,1,high,1,2.05599999999998,223.931,225.987,1
1,m,26,right,accuracy,low,1,28,0.055,0,low,0,left,1,low,0,2.125,228.513,230.638,1
1,m,26,right,accuracy,low,1,29,0.074,1,high,1,right,1,high,1,2.566,233.177,235.743,1
1,m,26,right,accuracy,low,1,30,0.055,0,low,1,right,0,high,1,2.328,238.29,240.618,1
1,m,26,right,accuracy,low,1,31,0.068,1,high,0,left,0,low,0,3.39400000000001,243.17,246.564,1
1,m,26,right,accuracy,low,1,32,0.052,0,low,0,left,1,low,0,1.81799999999998,249.08,250.898,1
1,m,26,right,accuracy,low,1,33,0.074,1,high,0,left,0,low,0,2.10199999999998,253.562,255.664,1
1,m,26,right,accuracy,low,1,34,0.068,0,high,1,right,1,high,1,1.81400000000002,258.227,260.041,1
1,m,26,right,accuracy,low,1,35,0.049,1,low,0,left,1,low,0,1.416,262.758,264.174,1
1,m,26,right,accuracy,low,1,36,0.046,0,low,0,left,1,low,0,1.71899999999999,267.24,268.959,1
1,m,26,right,accuracy,low,1,37,0.049,1,low,0,left,1,low,0,2.29200000000003,271.722,274.014,1
1,m,26,right,accuracy,low,1,38,0.049,0,low,0,left,1,low,0,1.91800000000001,276.553,278.471,1
1,m,26,right,accuracy,low,1,39,0.049,1,low,0,left,1,low,0,1.94799999999998,281.035,282.983,1
1,m,26,right,accuracy,low,1,40,0.071,0,high,1,right,1,high,1,1.92500000000001,285.533,287.458,1
1,m,26,right,accuracy,low,1,41,0.071,1,high,1,right,1,high,1,1.68299999999999,290.032,291.715,1
1,m,26,right,accuracy,low,1,42,0.052,0,low,0,left,1,low,0,1.47200000000004,294.58,296.052,1
1,m,26,right,accuracy,low,1,43,0.068,1,high,1,right,1,high,1,1.5,299.145,300.645,1
1,m,26,right,accuracy,low,1,44,0.074,0,high,1,right,1,high,1,1.53899999999999,303.694,305.233,1
1,m,26,right,accuracy,low,1,45,0.046,1,low,0,left,1,low,0,1.85599999999999,308.225,310.081,1
1,m,26,right,accuracy,low,1,46,0.071,0,high,1,right,1,high,1,1.71300000000002,312.757,314.47,1
1,m,26,right,accuracy,low,1,47,0.046,1,low,0,left,1,low,0,2.09899999999999,317.272,319.371,1
1,m,26,right,accuracy,low,1,48,0.074,0,high,1,right,1,high,1,2.13,321.937,324.067,1
1,m,26,right,accuracy,low,1,49,0.068,1,high,0,left,0,low,0,2.87599999999998,326.651,329.527,1
1,m,26,right,accuracy,low,1,50,0.046,0,low,0,left,1,low,0,1.62599999999998,332.129,333.755,1
1,m,26,right,accuracy,low,1,51,0.055,1,low,0,left,1,low,0,1.85399999999998,336.644,338.498,1
1,m,26,right,accuracy,low,1,52,0.046,0,low,0,left,1,low,0,2.27000000000004,341.176,343.446,1
1,m,26,right,accuracy,low,1,53,0.052,1,low,0,left,1,low,0,1.83599999999996,346.04,347.876,1
1,m,26,right,accuracy,low,1,54,0.065,0,high,0,left,0,low,0,1.69499999999999,350.622,352.317,1
1,m,26,right,accuracy,low,1,55,0.065,1,high,1,right,1,high,1,1.44299999999998,355.153,356.596,1
1,m,26,right,accuracy,low,1,56,0.046,0,low,0,left,1,low,0,1.59300000000002,359.702,361.295,1
1,m,26,right,accuracy,low,1,57,0.055,1,low,0,left,1,low,0,1.85300000000001,364.233,366.086,1
1,m,26,right,accuracy,low,1,58,0.074,0,high,1,right,1,high,1,1.77199999999999,368.782,370.554,1
1,m,26,right,accuracy,low,1,59,0.068,1,high,0,left,0,low,0,1.88999999999999,373.297,375.187,1
1,m,26,right,accuracy,low,1,60,0.074,0,high,1,right,1,high,1,1.916,377.829,379.745,1
1,m,26,right,accuracy,low,1,61,0.049,1,low,0,left,1,low,0,1.89600000000002,382.344,384.24,1
1,m,26,right,accuracy,low,1,62,0.065,0,high,1,right,1,high,1,1.85599999999999,386.859,388.715,1
1,m,26,right,accuracy,low,1,63,0.074,1,high,1,right,1,high,1,1.65499999999997,391.374,393.029,1
1,m,26,right,accuracy,low,1,64,0.065,0,high,0,left,0,low,0,1.60899999999998,395.906,397.515,1
1,m,26,right,accuracy,low,1,65,0.049,1,low,0,left,1,low,0,1.661,400.438,402.099,1
1,m,26,right,accuracy,low,1,66,0.052,0,low,0,left,1,low,0,1.66099999999994,404.97,406.631,1
1,m,26,right,accuracy,low,1,67,0.065,1,high,0,left,0,low,0,1.71299999999997,409.485,411.198,1
1,m,26,right,accuracy,low,1,68,0.068,0,high,1,right,1,high,1,2.096,414.033,416.129,1
1,m,26,right,accuracy,low,1,69,0.046,1,low,0,left,1,low,0,2.07800000000003,418.731,420.809,1
1,m,26,right,accuracy,low,1,70,0.065,0,high,0,left,0,low,0,1.85000000000002,423.429,425.279,1
1,m,26,right,accuracy,low,1,71,0.052,1,low,0,left,1,low,0,1.69900000000001,427.96,429.659,1
1,m,26,right,accuracy,low,1,72,0.046,0,low,0,left,1,low,0,1.55900000000003,432.525,434.084,1
1,m,26,right,accuracy,low,1,73,0.065,1,high,1,right,1,high,1,1.92100000000005,437.09,439.011,1
1,m,26,right,accuracy,low,1,74,0.071,0,high,1,right,1,high,1,1.67699999999996,441.639,443.316,1
1,m,26,right,accuracy,low,1,75,0.071,1,high,0,left,0,low,0,1.54500000000002,446.154,447.699,1
1,m,26,right,accuracy,low,1,76,0.065,0,high,0,left,0,low,0,1.88900000000001,450.702,452.591,1
1,m,26,right,accuracy,low,1,77,0.055,1,low,0,left,1,low,0,1.60900000000004,455.251,456.86,1
1,m,26,right,accuracy,low,1,78,0.074,0,high,0,left,0,low,0,1.13200000000001,459.799,460.931,1
1,m,26,right,accuracy,low,1,79,0.052,1,low,0,left,1,low,0,2.416,464.314,466.73,1
1,m,26,right,accuracy,low,1,80,0.052,0,low,0,left,1,low,0,2.404,469.311,471.715,1
1,m,26,right,accuracy,low,1,81,0.068,1,high,1,right,1,high,1,1.59199999999998,474.324,475.916,1
1,m,26,right,accuracy,low,1,82,0.068,0,high,0,left,0,low,0,1.82499999999999,478.856,480.681,1
1,m,26,right,accuracy,low,1,83,0.071,1,high,1,right,1,high,1,2.79200000000003,483.404,486.196,1
1,m,26,right,accuracy,low,1,84,0.049,0,low,0,left,1,low,0,1.73099999999999,488.799,490.53,1
1,m,26,right,accuracy,low,1,85,0.055,1,low,0,left,1,low,0,1.71199999999999,493.314,495.026,1
1,m,26,right,accuracy,low,1,86,0.074,0,high,1,right,1,high,1,1.35899999999998,497.846,499.205,1
1,m,26,right,accuracy,low,1,87,0.052,1,low,0,left,1,low,0,1.58800000000002,502.378,503.966,1
1,m,26,right,accuracy,low,1,88,0.065,0,high,1,right,1,high,1,1.721,506.909,508.63,1
1,m,26,right,accuracy,low,1,89,0.052,1,low,0,left,1,low,0,1.363,511.474,512.837,1
1,m,26,right,accuracy,low,1,90,0.052,0,low,0,left,1,low,0,1.41800000000001,516.006,517.424,1
1,m,26,right,accuracy,low,1,91,0.074,1,high,1,right,1,high,1,1.59299999999996,520.538,522.131,1
1,m,26,right,accuracy,low,1,92,0.055,0,low,0,left,1,low,0,1.91499999999996,525.053,526.968,1
1,m,26,right,accuracy,low,1,93,0.068,1,high,1,right,1,high,1,1.77299999999991,529.585,531.358,1
1,m,26,right,accuracy,low,1,94,0.049,0,low,0,left,1,low,0,1.79200000000003,534.117,535.909,1
1,m,26,right,accuracy,low,1,95,0.065,1,high,1,right,1,high,1,2.07999999999993,538.682,540.762,1
1,m,26,right,accuracy,low,1,96,0.049,0,low,0,left,1,low,0,1.77300000000002,543.346,545.119,1
1,m,26,right,accuracy,low,1,97,0.046,1,low,0,left,1,low,0,1.86799999999994,547.878,549.746,1
1,m,26,right,accuracy,low,1,98,0.055,0,low,1,right,0,high,1,1.82000000000005,552.41,554.23,1
1,m,26,right,accuracy,low,1,99,0.049,1,low,0,left,1,low,0,2.07799999999997,556.942,559.02,1
1,m,26,right,accuracy,low,1,100,0.065,0,high,1,right,1,high,1,3.12699999999995,561.639,564.766,1
1,m,26,right,accuracy,low,1,101,0.065,1,high,1,right,1,high,1,1.78300000000002,567.383,569.166,1
1,m,26,right,accuracy,low,1,102,0.071,0,high,1,right,1,high,1,1.84300000000007,571.948,573.791,1
1,m,26,right,accuracy,low,1,103,0.046,1,low,0,left,1,low,0,1.97500000000002,576.48,578.455,1
1,m,26,right,accuracy,low,1,104,0.068,0,high,1,right,1,high,1,1.87900000000002,581.061,582.94,1
1,m,26,right,accuracy,low,1,105,0.052,1,low,0,left,1,low,0,2.32600000000002,585.61,587.936,1
1,m,26,right,accuracy,low,1,106,0.049,0,low,0,left,1,low,0,1.94499999999994,590.523,592.468,1
1,m,26,right,accuracy,low,1,107,0.055,1,low,0,left,1,low,0,1.57100000000003,595.088,596.659,1
1,m,26,right,accuracy,low,1,108,0.065,0,high,0,left,0,low,0,1.91200000000003,599.587,601.499,1
1,m,26,right,accuracy,low,1,109,0.055,1,low,0,left,1,low,0,1.88499999999999,604.135,606.02,1
1,m,26,right,accuracy,low,1,110,0.049,0,low,1,right,0,high,1,2.31599999999992,608.7,611.016,1
1,m,26,right,accuracy,low,1,111,0.052,1,low,0,left,1,low,0,2.23599999999999,613.597,615.833,1
1,m,26,right,accuracy,low,1,112,0.052,0,low,0,left,1,low,0,2.21299999999997,618.428,620.641,1
1,m,26,right,accuracy,low,1,113,0.055,1,low,0,left,1,low,0,2.13900000000001,623.258,625.397,1
1,m,26,right,accuracy,low,1,114,0.055,0,low,1,right,0,high,1,1.73099999999999,627.956,629.687,1
1,m,26,right,accuracy,low,1,115,0.068,1,high,0,left,0,low,0,1.47199999999998,632.471,633.943,1
1,m,26,right,accuracy,low,1,116,0.068,0,high,1,right,1,high,1,1.88299999999992,637.003,638.886,1
1,m,26,right,accuracy,low,1,117,0.052,1,low,0,left,1,low,0,1.4319999999999,641.551,642.983,1
1,m,26,right,accuracy,low,1,118,0.046,0,low,0,left,1,low,0,1.49400000000003,646.083,647.577,1
1,m,26,right,accuracy,low,1,119,0.071,1,high,0,left,0,low,0,1.74299999999994,650.648,652.391,1
1,m,26,right,accuracy,low,1,120,0.049,0,low,0,left,1,low,0,1.7590000000000101,655.146,656.905,1
1,m,26,right,accuracy,low,1,121,0.074,1,high,0,left,0,low,0,2.02700000000004,659.745,661.772,1
1,m,26,right,accuracy,low,1,122,0.071,0,high,1,right,1,high,1,1.70699999999999,664.393,666.1,1
1,m,26,right,accuracy,low,1,123,0.074,1,high,1,right,1,high,1,2.04700000000003,668.908,670.955,1
1,m,26,right,accuracy,low,1,124,0.049,0,low,0,left,1,low,0,2.37400000000002,673.539,675.913,1
1,m,26,right,accuracy,low,1,NA,0.046,1,low,0,NA,1,low,0,NA,NA,NA,1
1,m,26,right,accuracy,low,1,NA,0.071,0,high,1,NA,1,high,1,NA,NA,NA,1
1,m,26,right,accuracy,low,1,NA,0.071,1,high,1,NA,1,high,1,NA,NA,NA,1
1,m,26,right,accuracy,low,1,NA,0.055,0,low,0,NA,1,low,0,NA,NA,NA,1
1,m,26,right,accuracy,low,2,1,0.046,1,low,1,NA,0,high,1,NA,NA,NA,1
1,m,26,right,accuracy,low,2,2,0.052,0,low,1,NA,0,high,1,NA,NA,NA,1
1,m,26,right,accuracy,low,2,3,0.065,1,high,1,NA,1,high,1,NA,NA,NA,1
1,m,26,right,accuracy,low,2,4,0.074,0,high,1,NA,1,high,1,NA,NA,NA,1
1,m,26,right,accuracy,low,2,5,0.065,1,high,0,NA,0,low,0,NA,NA,NA,1
1,m,26,right,accuracy,low,2,6,0.055,0,low,0,NA,1,low,0,NA,NA,NA,1
1,m,26,right,accuracy,low,2,7,0.065,1,high,0,NA,0,low,0,NA,NA,NA,1
1,m,26,right,accuracy,low,2,8,0.046,0,low,0,NA,1,low,0,NA,NA,NA,1
1,m,26,right,accuracy,low,2,9,0.071,1,high,0,NA,0,low,0,NA,NA,NA,1
1,m,26,right,accuracy,low,2,10,0.068,0,high,0,NA,0,low,0,NA,NA,NA,1
1,m,26,right,accuracy,low,2,11,0.074,1,high,1,NA,1,high,1,NA,NA,NA,1
1,m,26,right,accuracy,low,2,12,0.068,0,high,0,NA,0,low,0,NA,NA,NA,1
1,m,26,right,accuracy,low,2,13,0.046,1,low,0,NA,1,low,0,NA,NA,NA,1
1,m,26,right,accuracy,low,2,14,0.068,0,high,1,NA,1,high,1,NA,NA,NA,1
1,m,26,right,accuracy,low,2,15,0.049,1,low,0,NA,1,low,0,NA,NA,NA,1
1,m,26,right,accuracy,low,2,16,0.071,0,high,1,NA,1,high,1,NA,NA,NA,1
1,m,26,right,accuracy,low,2,17,0.074,1,high,0,NA,0,low,0,NA,NA,NA,1
1,m,26,right,accuracy,low,2,18,0.074,0,high,0,NA,0,low,0,NA,NA,NA,1
1,m,26,right,accuracy,low,2,19,0.055,1,low,0,NA,1,low,0,NA,NA,NA,1
1,m,26,right,accuracy,low,2,20,0.055,0,low,0,NA,1,low,0,NA,NA,NA,1
1,m,26,right,accuracy,low,2,21,0.071,1,high,1,NA,1,high,1,NA,NA,NA,1
1,m,26,right,accuracy,low,2,22,0.071,0,high,1,NA,1,high,1,NA,NA,NA,1
1,m,26,right,accuracy,low,2,23,0.071,1,high,0,NA,0,low,0,NA,NA,NA,1
1,m,26,right,accuracy,low,2,24,0.046,0,low,0,NA,1,low,0,NA,NA,NA,1
1,m,26,right,accuracy,low,2,25,0.049,1,low,0,NA,1,low,0,NA,NA,NA,1
1,m,26,right,accuracy,low,2,26,0.052,0,low,0,NA,1,low,0,NA,NA,NA,1
1,m,26,right,accuracy,low,2,27,0.068,1,high,0,NA,0,low,0,NA,NA,NA,1
1,m,26,right,accuracy,low,2,28,0.055,0,low,0,NA,1,low,0,NA,NA,NA,1
1,m,26,right,accuracy,low,2,29,0.074,1,high,1,NA,1,high,1,NA,NA,NA,1
1,m,26,right,accuracy,low,2,30,0.055,0,low,1,NA,0,high,1,NA,NA,NA,1
1,m,26,right,accuracy,low,2,31,0.068,1,high,0,NA,0,low,0,NA,NA,NA,1
1,m,26,right,accuracy,low,2,32,0.052,0,low,0,NA,1,low,0,NA,NA,NA,1
1,m,26,right,accuracy,low,2,33,0.074,1,high,1,NA,1,high,1,NA,NA,NA,1
1,m,26,right,accuracy,low,2,34,0.068,0,high,0,NA,0,low,0,NA,NA,NA,1
1,m,26,right,accuracy,low,2,35,0.049,1,low,0,NA,1,low,0,NA,NA,NA,1
1,m,26,right,accuracy,low,2,36,0.046,0,low,0,NA,1,low,0,NA,NA,NA,1
1,m,26,right,accuracy,low,2,37,0.049,1,low,0,NA,1,low,0,NA,NA,NA,1
1,m,26,right,accuracy,low,2,38,0.049,0,low,0,NA,1,low,0,NA,NA,NA,1
1,m,26,right,accuracy,low,2,39,0.049,1,low,0,NA,1,low,0,NA,NA,NA,1
1,m,26,right,accuracy,low,2,40,0.071,0,high,1,NA,1,high,1,NA,NA,NA,1
1,m,26,right,accuracy,low,2,41,0.071,1,high,0,NA,0,low,0,NA,NA,NA,1
1,m,26,right,accuracy,low,2,42,0.052,0,low,0,NA,1,low,0,NA,NA,NA,1
1,m,26,right,accuracy,low,2,43,0.068,1,high,0,NA,0,low,0,NA,NA,NA,1
1,m,26,right,accuracy,low,2,44,0.074,0,high,1,NA,1,high,1,NA,NA,NA,1
1,m,26,right,accuracy,low,2,45,0.046,1,low,0,NA,1,low,0,NA,NA,NA,1
1,m,26,right,accuracy,low,2,46,0.071,0,high,1,NA,1,high,1,NA,NA,NA,1
1,m,26,right,accuracy,low,2,47,0.046,1,low,0,NA,1,low,0,NA,NA,NA,1
1,m,26,right,accuracy,low,2,48,0.074,0,high,1,NA,1,high,1,NA,NA,NA,1
1,m,26,right,accuracy,low,2,49,0.068,1,high,0,NA,0,low,0,NA,NA,NA,1
1,m,26,right,accuracy,low,2,50,0.046,0,low,0,NA,1,low,0,NA,NA,NA,1
1,m,26,right,accuracy,low,2,51,0.055,1,low,0,NA,1,low,0,NA,NA,NA,1
1,m,26,right,accuracy,low,2,52,0.046,0,low,0,NA,1,low,0,NA,NA,NA,1
1,m,26,right,accuracy,low,2,53,0.052,1,low,0,NA,1,low,0,NA,NA,NA,1
1,m,26,right,accuracy,low,2,54,0.065,0,high,1,NA,1,high,1,NA,NA,NA,1
1,m,26,right,accuracy,low,2,55,0.065,1,high,1,NA,1,high,1,NA,NA,NA,1
1,m,26,right,accuracy,low,2,56,0.046,0,low,0,NA,1,low,0,NA,NA,NA,1
1,m,26,right,accuracy,low,2,57,0.055,1,low,0,NA,1,low,0,NA,NA,NA,1
1,m,26,right,accuracy,low,2,58,0.074,0,high,1,NA,1,high,1,NA,NA,NA,1
1,m,26,right,accuracy,low,2,59,0.068,1,high,0,NA,0,low,0,NA,NA,NA,1
1,m,26,right,accuracy,low,2,60,0.074,0,high,1,NA,1,high,1,NA,NA,NA,1
1,m,26,right,accuracy,low,2,61,0.049,1,low,0,NA,1,low,0,NA,NA,NA,1
1,m,26,right,accuracy,low,2,62,0.065,0,high,0,NA,0,low,0,NA,NA,NA,1
1,m,26,right,accuracy,low,2,63,0.074,1,high,1,NA,1,high,1,NA,NA,NA,1
1,m,26,right,accuracy,low,2,64,0.065,0,high,1,NA,1,high,1,NA,NA,NA,1
1,m,26,right,accuracy,low,2,65,0.049,1,low,0,NA,1,low,0,NA,NA,NA,1
1,m,26,right,accuracy,low,2,66,0.052,0,low,0,NA,1,low,0,NA,NA,NA,1
1,m,26,right,accuracy,low,2,67,0.065,1,high,0,NA,0,low,0,NA,NA,NA,1
1,m,26,right,accuracy,low,2,68,0.068,0,high,0,NA,0,low,0,NA,NA,NA,1
1,m,26,right,accuracy,low,2,69,0.046,1,low,0,NA,1,low,0,NA,NA,NA,1
1,m,26,right,accuracy,low,2,70,0.065,0,high,1,NA,1,high,1,NA,NA,NA,1
1,m,26,right,accuracy,low,2,71,0.052,1,low,0,NA,1,low,0,NA,NA,NA,1
1,m,26,right,accuracy,low,2,72,0.046,0,low,0,NA,1,low,0,NA,NA,NA,1
1,m,26,right,accuracy,low,2,73,0.065,1,high,0,NA,0,low,0,NA,NA,NA,1
1,m,26,right,accuracy,low,2,74,0.071,0,high,1,NA,1,high,1,NA,NA,NA,1
1,m,26,right,accuracy,low,2,75,0.071,1,high,1,NA,1,high,1,NA,NA,NA,1
1,m,26,right,accuracy,low,2,76,0.065,0,high,1,NA,1,high,1,NA,NA,NA,1
1,m,26,right,accuracy,low,2,77,0.055,1,low,0,NA,1,low,0,NA,NA,NA,1
1,m,26,right,accuracy,low,2,78,0.074,0,high,0,NA,0,low,0,NA,NA,NA,1
1,m,26,right,accuracy,low,2,79,0.052,1,low,0,NA,1,low,0,NA,NA,NA,1
1,m,26,right,accuracy,low,2,80,0.052,0,low,0,NA,1,low,0,NA,NA,NA,1
1,m,26,right,accuracy,low,2,81,0.068,1,high,1,NA,1,high,1,NA,NA,NA,1
1,m,26,right,accuracy,low,2,82,0.068,0,high,1,NA,1,high,1,NA,NA,NA,1
1,m,26,right,accuracy,low,2,83,0.071,1,high,1,NA,1,high,1,NA,NA,NA,1
1,m,26,right,accuracy,low,2,84,0.049,0,low,0,NA,1,low,0,NA,NA,NA,1
1,m,26,right,accuracy,low,2,85,0.055,1,low,0,NA,1,low,0,NA,NA,NA,1
1,m,26,right,accuracy,low,2,86,0.074,0,high,1,NA,1,high,1,NA,NA,NA,1
1,m,26,right,accuracy,low,2,87,0.052,1,low,0,NA,1,low,0,NA,NA,NA,1
1,m,26,right,accuracy,low,2,88,0.065,0,high,1,NA,1,high,1,NA,NA,NA,1
1,m,26,right,accuracy,low,2,89,0.052,1,low,0,NA,1,low,0,NA,NA,NA,1
1,m,26,right,accuracy,low,2,90,0.052,0,low,0,NA,1,low,0,NA,NA,NA,1
1,m,26,right,accuracy,low,2,91,0.074,1,high,1,NA,1,high,1,NA,NA,NA,1
1,m,26,right,accuracy,low,2,92,0.055,0,low,0,NA,1,low,0,NA,NA,NA,1
1,m,26,right,accuracy,low,2,93,0.068,1,high,0,NA,0,low,0,NA,NA,NA,1
1,m,26,right,accuracy,low,2,94,0.049,0,low,0,NA,1,low,0,NA,NA,NA,1
1,m,26,right,accuracy,low,2,95,0.065,1,high,1,NA,1,high,1,NA,NA,NA,1
1,m,26,right,accuracy,low,2,96,0.049,0,low,0,NA,1,low,0,NA,NA,NA,1
1,m,26,right,accuracy,low,2,97,0.046,1,low,0,NA,1,low,0,NA,NA,NA,1
1,m,26,right,accuracy,low,2,98,0.055,0,low,0,NA,1,low,0,NA,NA,NA,1
1,m,26,right,accuracy,low,2,99,0.049,1,low,0,NA,1,low,0,NA,NA,NA,1
1,m,26,right,accuracy,low,2,100,0.065,0,high,0,NA,0,low,0,NA,NA,NA,1
1,m,26,right,accuracy,low,2,101,0.065,1,high,0,NA,0,low,0,NA,NA,NA,1
1,m,26,right,accuracy,low,2,102,0.071,0,high,1,NA,1,high,1,NA,NA,NA,1
1,m,26,right,accuracy,low,2,103,0.046,1,low,0,NA,1,low,0,NA,NA,NA,1
1,m,26,right,accuracy,low,2,104,0.068,0,high,1,NA,1,high,1,NA,NA,NA,1
1,m,26,right,accuracy,low,2,105,0.052,1,low,0,NA,1,low,0,NA,NA,NA,1
1,m,26,right,accuracy,low,2,106,0.049,0,low,0,NA,1,low,0,NA,NA,NA,1
1,m,26,right,accuracy,low,2,107,0.055,1,low,0,NA,1,low,0,NA,NA,NA,1
1,m,26,right,accuracy,low,2,108,0.065,0,high,0,NA,0,low,0,NA,NA,NA,1
1,m,26,right,accuracy,low,2,109,0.055,1,low,0,NA,1,low,0,NA,NA,NA,1
1,m,26,right,accuracy,low,2,110,0.049,0,low,0,NA,1,low,0,NA,NA,NA,1
1,m,26,right,accuracy,low,2,111,0.052,1,low,0,NA,1,low,0,NA,NA,NA,1
1,m,26,right,accuracy,low,2,112,0.052,0,low,1,NA,0,high,1,NA,NA,NA,1
1,m,26,right,accuracy,low,2,113,0.055,1,low,0,NA,1,low,0,NA,NA,NA,1
1,m,26,right,accuracy,low,2,114,0.055,0,low,1,NA,0,high,1,NA,NA,NA,1
1,m,26,right,accuracy,low,2,115,0.068,1,high,0,NA,0,low,0,NA,NA,NA,1
1,m,26,right,accuracy,low,2,116,0.068,0,high,0,NA,0,low,0,NA,NA,NA,1
1,m,26,right,accuracy,low,2,117,0.052,1,low,0,NA,1,low,0,NA,NA,NA,1
1,m,26,right,accuracy,low,2,118,0.046,0,low,0,NA,1,low,0,NA,NA,NA,1
1,m,26,right,accuracy,low,2,119,0.071,1,high,1,NA,1,high,1,NA,NA,NA,1
1,m,26,right,accuracy,low,2,120,0.049,0,low,0,NA,1,low,0,NA,NA,NA,1
1,m,26,right,accuracy,low,2,121,0.074,1,high,1,NA,1,high,1,NA,NA,NA,1
1,m,26,right,accuracy,low,2,122,0.071,0,high,1,NA,1,high,1,NA,NA,NA,1
1,m,26,right,accuracy,low,2,123,0.074,1,high,1,NA,1,high,1,NA,NA,NA,1
1,m,26,right,accuracy,low,2,124,0.049,0,low,0,NA,1,low,0,NA,NA,NA,1
1,m,26,right,accuracy,low,2,125,0.046,1,low,0,NA,1,low,0,NA,NA,NA,1
1,m,26,right,accuracy,low,2,126,0.071,0,high,1,NA,1,high,1,NA,NA,NA,1
1,m,26,right,accuracy,low,2,127,0.071,1,high,0,NA,0,low,0,NA,NA,NA,1
1,m,26,right,accuracy,low,2,128,0.055,0,low,0,NA,1,low,0,NA,NA,NA,1
1,m,26,right,accuracy,low,3,1,0.049,1,low,0,left,1,low,0,1.807,4.951,6.758,1
1,m,26,right,accuracy,low,3,2,0.071,0,high,1,right,1,high,1,2.102,9.499,11.601,1
1,m,26,right,accuracy,low,3,3,0.074,1,high,1,right,1,high,1,1.592,14.18,15.772,1
1,m,26,right,accuracy,low,3,4,0.046,0,low,0,left,1,low,0,1.288,18.679,19.967,1
1,m,26,right,accuracy,low,3,5,0.065,1,high,1,right,1,high,1,2.198,23.177,25.375,1
1,m,26,right,accuracy,low,3,6,0.055,0,low,0,left,1,low,0,1.651,27.958,29.609,1
1,m,26,right,accuracy,low,3,7,0.071,1,high,0,left,0,low,0,1.669,32.457,34.126,1
1,m,26,right,accuracy,low,3,8,0.071,0,high,1,right,1,high,1,1.605,36.972,38.577,1
1,m,26,right,accuracy,low,3,9,0.052,1,low,0,left,1,low,0,1.799,41.52,43.319,1
1,m,26,right,accuracy,low,3,10,0.046,0,low,0,left,1,low,0,1.722,46.019,47.741,1
1,m,26,right,accuracy,low,3,11,0.049,1,low,0,left,1,low,0,2.422,50.551,52.973,1
1,m,26,right,accuracy,low,3,12,0.055,0,low,1,right,0,high,1,2.505,55.497,58.002,1
1,m,26,right,accuracy,low,3,13,0.049,1,low,0,left,1,low,0,1.845,60.56,62.405,1
1,m,26,right,accuracy,low,3,14,0.052,0,low,0,left,1,low,0,1.61699999999999,65.075,66.692,1
1,m,26,right,accuracy,low,3,15,0.049,1,low,0,left,1,low,0,1.842,69.607,71.449,1
1,m,26,right,accuracy,low,3,16,0.052,0,low,0,left,1,low,0,1.86,74.139,75.999,1
1,m,26,right,accuracy,low,3,17,0.068,1,high,1,right,1,high,1,2.20699999999999,78.638,80.845,1
1,m,26,right,accuracy,low,3,18,0.046,0,low,0,left,1,low,0,1.792,83.452,85.244,1
1,m,26,right,accuracy,low,3,19,0.071,1,high,1,right,1,high,1,1.815,87.95,89.765,1
1,m,26,right,accuracy,low,3,20,0.065,0,high,1,right,1,high,1,1.99900000000001,92.499,94.498,1
1,m,26,right,accuracy,low,3,21,0.052,1,low,0,left,1,low,0,1.53,97.047,98.577,1
1,m,26,right,accuracy,low,3,22,0.046,0,low,0,left,1,low,0,1.236,101.545,102.781,1
1,m,26,right,accuracy,low,3,23,0.055,1,low,0,left,1,low,0,1.38800000000001,106.077,107.465,1
1,m,26,right,accuracy,low,3,24,0.074,0,high,1,right,1,high,1,1.387,110.609,111.996,1
1,m,26,right,accuracy,low,3,25,0.046,1,low,0,left,1,low,0,1.294,115.141,116.435,1
1,m,26,right,accuracy,low,3,26,0.074,0,high,1,right,1,high,1,1.04799999999999,119.656,120.704,1
1,m,26,right,accuracy,low,3,27,0.068,1,high,1,right,1,high,1,2.867,124.154,127.021,1
1,m,26,right,accuracy,low,3,28,0.068,0,high,1,right,1,high,1,2.35300000000001,129.599,131.952,1
1,m,26,right,accuracy,low,3,29,0.068,1,high,1,right,1,high,1,1.87899999999999,134.529,136.408,1
1,m,26,right,accuracy,low,3,30,0.055,0,low,0,left,1,low,0,2.702,139.061,141.763,1
1,m,26,right,accuracy,low,3,31,0.074,1,high,1,right,1,high,1,1.96199999999999,144.357,146.319,1
1,m,26,right,accuracy,low,3,32,0.046,0,low,0,left,1,low,0,1.66499999999999,148.922,150.587,1
1,m,26,right,accuracy,low,3,33,0.074,1,high,1,right,1,high,1,2.096,153.453,155.549,1
1,m,26,right,accuracy,low,3,34,0.049,0,low,0,left,1,low,0,1.547,158.151,159.698,1
1,m,26,right,accuracy,low,3,35,0.065,1,high,1,right,1,high,1,1.66,162.716,164.376,1
1,m,26,right,accuracy,low,3,36,0.074,0,high,1,right,1,high,1,1.60400000000001,167.231,168.835,1
1,m,26,right,accuracy,low,3,37,0.074,1,high,0,left,0,low,0,1.69200000000001,171.796,173.488,1
1,m,26,right,accuracy,low,3,38,0.046,0,low,0,left,1,low,0,1.57300000000001,176.345,177.918,1
1,m,26,right,accuracy,low,3,39,0.068,1,high,1,right,1,high,1,1.46299999999999,180.876,182.339,1
1,m,26,right,accuracy,low,3,40,0.065,0,high,1,right,1,high,1,1.95399999999998,185.425,187.379,1
1,m,26,right,accuracy,low,3,41,0.052,1,low,0,left,1,low,0,1.25200000000001,189.956,191.208,1
1,m,26,right,accuracy,low,3,42,0.046,0,low,0,left,1,low,0,1.45899999999997,194.455,195.914,1
1,m,26,right,accuracy,low,3,43,0.068,1,high,1,right,1,high,1,2.268,198.987,201.255,1
1,m,26,right,accuracy,low,3,44,0.065,0,high,0,left,0,low,0,1.69299999999998,203.817,205.51,1
1,m,26,right,accuracy,low,3,45,0.065,1,high,0,left,0,low,0,1.761,208.366,210.127,1
1,m,26,right,accuracy,low,3,46,0.071,0,high,0,left,0,low,0,1.404,212.898,214.302,1
1,m,26,right,accuracy,low,3,47,0.074,1,high,0,left,0,low,0,1.709,217.446,219.155,1
1,m,26,right,accuracy,low,3,48,0.074,0,high,1,right,1,high,1,1.488,221.978,223.466,1
1,m,26,right,accuracy,low,3,49,0.049,1,low,0,left,1,low,0,1.90600000000001,226.543,228.449,1
1,m,26,right,accuracy,low,3,50,0.065,0,high,1,right,1,high,1,1.47900000000001,231.058,232.537,1
1,m,26,right,accuracy,low,3,51,0.046,1,low,0,left,1,low,0,1.75699999999998,235.639,237.396,1
1,m,26,right,accuracy,low,3,52,0.065,0,high,1,right,1,high,1,1.62300000000002,240.188,241.811,1
1,m,26,right,accuracy,low,3,53,0.074,1,high,1,right,1,high,1,1.643,244.736,246.379,1
1,m,26,right,accuracy,low,3,54,0.071,0,high,0,left,0,low,0,1.749,249.268,251.017,1
1,m,26,right,accuracy,low,3,55,0.052,1,low,0,left,1,low,0,1.756,253.8,255.556,1
1,m,26,right,accuracy,low,3,56,0.068,0,high,0,left,0,low,0,2.05799999999999,258.348,260.406,1
1,m,26,right,accuracy,low,3,57,0.055,1,low,0,left,1,low,0,1.86099999999999,263.029,264.89,1
1,m,26,right,accuracy,low,3,58,0.052,0,low,0,left,1,low,0,1.31800000000004,267.561,268.879,1
1,m,26,right,accuracy,low,3,59,0.055,1,low,0,left,1,low,0,1.40300000000002,272.126,273.529,1
1,m,26,right,accuracy,low,3,60,0.049,0,low,0,left,1,low,0,1.56700000000001,276.641,278.208,1
1,m,26,right,accuracy,low,3,61,0.071,1,high,0,left,0,low,0,1.92200000000003,281.173,283.095,1
1,m,26,right,accuracy,low,3,62,0.068,0,high,0,left,0,low,0,1.88999999999999,285.721,287.611,1
1,m,26,right,accuracy,low,3,63,0.049,1,low,0,left,1,low,0,1.73700000000002,290.253,291.99,1
1,m,26,right,accuracy,low,3,64,0.049,0,low,0,left,1,low,0,1.928,294.801,296.729,1
1,m,26,right,accuracy,low,3,65,0.068,1,high,1,right,1,high,1,1.90700000000004,299.366,301.273,1
1,m,26,right,accuracy,low,3,66,0.071,0,high,1,right,1,high,1,1.62300000000005,303.881,305.504,1
1,m,26,right,accuracy,low,3,67,0.052,1,low,0,left,1,low,0,1.24700000000001,308.43,309.677,1
1,m,26,right,accuracy,low,3,68,0.068,0,high,1,right,1,high,1,2.197,312.978,315.175,1
1,m,26,right,accuracy,low,3,69,0.065,1,high,0,left,0,low,0,1.58299999999997,317.776,319.359,1
1,m,26,right,accuracy,low,3,70,0.068,0,high,1,right,1,high,1,2.04300000000001,322.258,324.301,1
1,m,26,right,accuracy,low,3,71,0.055,1,low,0,left,1,low,0,1.59100000000001,326.906,328.497,1
1,m,26,right,accuracy,low,3,72,0.052,0,low,0,left,1,low,0,1.41699999999997,331.487,332.904,1
1,m,26,right,accuracy,low,3,73,0.065,1,high,0,left,0,low,0,1.928,336.019,337.947,1
1,m,26,right,accuracy,low,3,74,0.052,0,low,0,left,1,low,0,1.68600000000004,340.551,342.237,1
1,m,26,right,accuracy,low,3,75,0.046,1,low,0,left,1,low,0,1.61900000000003,345.099,346.718,1
1,m,26,right,accuracy,low,3,76,0.074,0,high,1,right,1,high,1,1.84300000000002,349.614,351.457,1
1,m,26,right,accuracy,low,3,77,0.074,1,high,1,right,1,high,1,1.77100000000002,354.163,355.934,1
1,m,26,right,accuracy,low,3,78,0.071,0,high,0,left,0,low,0,1.79599999999999,358.694,360.49,1
1,m,26,right,accuracy,low,3,79,0.055,1,low,0,left,1,low,0,1.863,363.21,365.073,1
1,m,26,right,accuracy,low,3,80,0.071,0,high,1,right,1,high,1,1.70800000000003,367.758,369.466,1
1,m,26,right,accuracy,low,3,81,0.071,1,high,0,left,0,low,0,1.79499999999996,372.29,374.085,1
1,m,26,right,accuracy,low,3,82,0.046,0,low,0,left,1,low,0,1.387,376.772,378.159,1
1,m,26,right,accuracy,low,3,83,0.055,1,low,0,left,1,low,0,1.755,381.32,383.075,1
1,m,26,right,accuracy,low,3,84,0.049,0,low,0,left,1,low,0,1.34300000000002,385.852,387.195,1
1,m,26,right,accuracy,low,3,85,0.049,1,low,0,left,1,low,0,2.21899999999999,390.367,392.586,1
1,m,26,right,accuracy,low,3,86,0.065,0,high,1,right,1,high,1,1.37299999999999,395.148,396.521,1
1,m,26,right,accuracy,low,3,87,0.071,1,high,1,right,1,high,1,1.60600000000005,399.679,401.285,1
1,m,26,right,accuracy,low,3,88,0.065,0,high,1,right,1,high,1,1.33499999999998,404.228,405.563,1
1,m,26,right,accuracy,low,3,89,0.046,1,low,0,left,1,low,0,1.38900000000001,408.743,410.132,1
1,m,26,right,accuracy,low,3,90,0.068,0,high,1,right,1,high,1,1.46100000000001,413.291,414.752,1
1,m,26,right,accuracy,low,3,91,0.071,1,high,0,left,0,low,0,1.76599999999996,417.807,419.573,1
1,m,26,right,accuracy,low,3,92,0.049,0,low,0,left,1,low,0,1.37799999999999,422.355,423.733,1
1,m,26,right,accuracy,low,3,93,0.046,1,low,0,left,1,low,0,1.97500000000002,426.87,428.845,1
1,m,26,right,accuracy,low,3,94,0.055,0,low,0,left,1,low,0,1.88999999999999,431.435,433.325,1
1,m,26,right,accuracy,low,3,95,0.071,1,high,0,left,0,low,0,1.92200000000003,435.967,437.889,1
1,m,26,right,accuracy,low,3,96,0.055,0,low,0,left,1,low,0,1.60199999999998,440.482,442.084,1
1,m,26,right,accuracy,low,3,97,0.052,1,low,0,left,1,low,0,1.51000000000005,445.03,446.54,1
1,m,26,right,accuracy,low,3,98,0.055,0,low,1,right,0,high,1,1.74000000000001,449.562,451.302,1
1,m,26,right,accuracy,low,3,99,0.055,1,low,0,left,1,low,0,1.43000000000001,454.11,455.54,1
1,m,26,right,accuracy,low,3,100,0.065,0,high,0,left,0,low,0,1.858,458.642,460.5,1
1,m,26,right,accuracy,low,3,101,0.052,1,low,0,left,1,low,0,1.50100000000003,463.191,464.692,1
1,m,26,right,accuracy,low,3,102,0.068,0,high,1,right,1,high,1,1.86100000000005,467.722,469.583,1
1,m,26,right,accuracy,low,3,103,0.065,1,high,0,left,0,low,0,2.04200000000003,472.287,474.329,1
1,m,26,right,accuracy,low,3,104,0.052,0,low,0,left,1,low,0,1.64100000000002,476.902,478.543,1
1,m,26,right,accuracy,low,3,105,0.074,1,high,1,right,1,high,1,1.86500000000001,481.484,483.349,1
1,m,26,right,accuracy,low,3,106,0.074,0,high,1,right,1,high,1,1.59100000000001,486.015,487.606,1
1,m,26,right,accuracy,low,3,107,0.055,1,low,0,left,1,low,0,1.81899999999996,490.564,492.383,1
1,m,26,right,accuracy,low,3,108,0.052,0,low,0,left,1,low,0,1.41899999999998,495.112,496.531,1
1,m,26,right,accuracy,low,3,109,0.068,1,high,0,left,0,low,0,1.25700000000001,499.677,500.934,1
1,m,26,right,accuracy,low,3,110,0.049,0,low,0,left,1,low,0,1.61900000000003,504.226,505.845,1
1,m,26,right,accuracy,low,3,111,0.068,1,high,0,left,0,low,0,1.64300000000003,508.741,510.384,1
1,m,26,right,accuracy,low,3,112,0.071,0,high,1,right,1,high,1,1.65899999999999,513.273,514.932,1
1,m,26,right,accuracy,low,3,113,0.046,1,low,0,left,1,low,0,1.69400000000007,517.804,519.498,1
1,m,26,right,accuracy,low,3,114,0.055,0,low,0,left,1,low,0,1.75799999999992,522.369,524.127,1
1,m,26,right,accuracy,low,3,115,0.065,1,high,0,left,0,low,0,1.54200000000003,526.918,528.46,1
1,m,26,right,accuracy,low,3,116,0.049,0,low,0,left,1,low,0,1.77999999999997,531.466,533.246,1
1,m,26,right,accuracy,low,3,117,0.046,1,low,0,left,1,low,0,1.31499999999994,535.998,537.313,1
1,m,26,right,accuracy,low,3,118,0.074,0,high,0,left,0,low,0,1.70400000000006,540.563,542.267,1
1,m,26,right,accuracy,low,3,119,0.052,1,low,0,left,1,low,0,2.33399999999995,545.061,547.395,1
1,m,26,right,accuracy,low,3,120,0.052,0,low,0,left,1,low,0,2.02999999999997,550.008,552.038,1
1,m,26,right,accuracy,low,3,121,0.046,1,low,0,left,1,low,0,1.726,554.59,556.316,1
1,m,26,right,accuracy,low,3,122,0.074,0,high,1,right,1,high,1,1.61500000000001,559.105,560.72,1
1,m,26,right,accuracy,low,3,123,0.049,1,low,1,right,0,high,1,1.83500000000004,563.637,565.472,1
1,m,26,right,accuracy,low,3,124,0.049,0,low,0,left,1,low,0,1.35600000000011,568.185,569.541,1
1,m,26,right,accuracy,low,3,125,0.071,1,high,0,left,0,low,0,2.00400000000002,572.733,574.737,1
1,m,26,right,accuracy,low,3,126,0.068,0,high,0,left,0,low,0,1.23799999999994,577.331,578.569,1
1,m,26,right,accuracy,low,3,127,0.065,1,high,1,right,1,high,1,1.55099999999993,581.863,583.414,1
1,m,26,right,accuracy,low,3,128,0.055,0,low,0,left,1,low,0,1.32799999999997,586.445,587.773,1
1,m,26,right,accuracy,low,4,1,0.074,1,high,0,left,0,low,0,2.238,4.154,6.392,1
1,m,26,right,accuracy,low,4,2,0.055,0,low,0,left,1,low,0,1.35,8.968,10.318,1
1,m,26,right,accuracy,low,4,3,0.055,1,low,0,left,1,low,0,1.267,13.483,14.75,1
1,m,26,right,accuracy,low,4,4,0.049,0,low,0,left,1,low,0,2.018,18.015,20.033,1
1,m,26,right,accuracy,low,4,5,0.055,1,low,1,right,0,high,1,1.379,22.613,23.992,1
1,m,26,right,accuracy,low,4,6,0.074,0,high,1,right,1,high,1,1.54,27.128,28.668,1
1,m,26,right,accuracy,low,4,7,0.074,1,high,1,right,1,high,1,2.003,31.66,33.663,1
1,m,26,right,accuracy,low,4,8,0.046,0,low,0,left,1,low,0,1.357,36.192,37.549,1
1,m,26,right,accuracy,low,4,9,0.074,1,high,1,right,1,high,1,1.776,40.723,42.499,1
1,m,26,right,accuracy,low,4,10,0.071,0,high,1,right,1,high,1,1.86,45.222,47.082,1
1,m,26,right,accuracy,low,4,11,0.071,1,high,1,right,1,high,1,1.838,49.737,51.575,1
1,m,26,right,accuracy,low,4,12,0.068,0,high,1,right,1,high,1,1.636,54.285,55.921,1
1,m,26,right,accuracy,low,4,13,0.046,1,low,0,left,1,low,0,1.613,58.817,60.43,1
1,m,26,right,accuracy,low,4,14,0.068,0,high,1,right,1,high,1,1.772,63.349,65.121,1
1,m,26,right,accuracy,low,4,15,0.046,1,low,0,left,1,low,0,1.57899999999999,67.881,69.46,1
1,m,26,right,accuracy,low,4,16,0.074,0,high,1,right,1,high,1,1.783,72.413,74.196,1
1,m,26,right,accuracy,low,4,17,0.052,1,low,0,left,1,low,0,1.777,76.978,78.755,1
1,m,26,right,accuracy,low,4,18,0.074,0,high,1,right,1,high,1,2.15400000000001,81.526,83.68,1
1,m,26,right,accuracy,low,4,19,0.068,1,high,0,left,0,low,0,2.15400000000001,86.207,88.361,1
1,m,26,right,accuracy,low,4,20,0.071,0,high,1,right,1,high,1,1.60600000000001,90.955,92.561,1
1,m,26,right,accuracy,low,4,21,0.052,1,low,0,left,1,low,0,2.581,95.47,98.051,1
1,m,26,right,accuracy,low,4,22,0.052,0,low,0,left,1,low,0,1.89100000000001,100.616,102.507,1
1,m,26,right,accuracy,low,4,23,0.046,1,low,0,left,1,low,0,1.321,105.197,106.518,1
1,m,26,right,accuracy,low,4,24,0.052,0,low,0,left,1,low,0,1.751,109.729,111.48,1
1,m,26,right,accuracy,low,4,25,0.068,1,high,1,right,1,high,1,1.845,114.261,116.106,1
1,m,26,right,accuracy,low,4,26,0.071,0,high,1,right,1,high,1,1.75999999999999,118.793,120.553,1
1,m,26,right,accuracy,low,4,27,0.052,1,low,0,left,1,low,0,1.855,123.341,125.196,1
1,m,26,right,accuracy,low,4,28,0.052,0,low,0,left,1,low,0,1.63,127.856,129.486,1
1,m,26,right,accuracy,low,4,29,0.049,1,low,0,left,1,low,0,1.702,132.371,134.073,1
1,m,26,right,accuracy,low,4,30,0.046,0,low,0,left,1,low,0,1.59299999999999,136.887,138.48,1
1,m,26,right,accuracy,low,4,31,0.068,1,high,1,right,1,high,1,1.773,141.435,143.208,1
1,m,26,right,accuracy,low,4,32,0.074,0,high,1,right,1,high,1,1.607,145.95,147.557,1
1,m,26,right,accuracy,low,4,33,0.049,1,low,0,left,1,low,0,1.40799999999999,150.482,151.89,1
1,m,26,right,accuracy,low,4,34,0.071,0,high,1,right,1,high,1,1.726,155.014,156.74,1
1,m,26,right,accuracy,low,4,35,0.052,1,low,0,left,1,low,0,1.80600000000001,159.529,161.335,1
1,m,26,right,accuracy,low,4,36,0.049,0,low,0,left,1,low,0,1.59899999999999,164.061,165.66,1
1,m,26,right,accuracy,low,4,37,0.046,1,low,0,left,1,low,0,1.42899999999997,168.592,170.021,1
1,m,26,right,accuracy,low,4,38,0.049,0,low,0,left,1,low,0,1.554,173.107,174.661,1
1,m,26,right,accuracy,low,4,39,0.065,1,high,1,right,1,high,1,1.65000000000001,177.623,179.273,1
1,m,26,right,accuracy,low,4,40,0.046,0,low,0,left,1,low,0,1.79900000000001,182.138,183.937,1
1,m,26,right,accuracy,low,4,41,0.055,1,low,0,left,1,low,0,1.52200000000002,186.653,188.175,1
1,m,26,right,accuracy,low,4,42,0.046,0,low,0,left,1,low,0,1.893,191.185,193.078,1
1,m,26,right,accuracy,low,4,43,0.049,1,low,0,left,1,low,0,2.30499999999998,195.717,198.022,1
1,m,26,right,accuracy,low,4,44,0.065,0,high,1,right,1,high,1,1.566,200.614,202.18,1
1,m,26,right,accuracy,low,4,45,0.065,1,high,1,right,1,high,1,1.61099999999999,205.162,206.773,1
1,m,26,right,accuracy,low,4,46,0.055,0,low,0,left,1,low,0,1.83699999999999,209.71,211.547,1
1,m,26,right,accuracy,low,4,47,0.055,1,low,0,left,1,low,0,1.709,214.242,215.951,1
1,m,26,right,accuracy,low,4,48,0.052,0,low,0,left,1,low,0,1.75799999999998,218.741,220.499,1
1,m,26,right,accuracy,low,4,49,0.049,1,low,0,left,1,low,0,1.80700000000002,223.289,225.096,1
1,m,26,right,accuracy,low,4,50,0.049,0,low,0,left,1,low,0,1.59100000000001,227.838,229.429,1
1,m,26,right,accuracy,low,4,51,0.065,1,high,1,right,1,high,1,1.53200000000001,232.402,233.934,1
1,m,26,right,accuracy,low,4,52,0.052,0,low,0,left,1,low,0,1.63399999999999,236.917,238.551,1
1,m,26,right,accuracy,low,4,53,0.074,1,high,1,right,1,high,1,1.62100000000001,241.482,243.103,1
1,m,26,right,accuracy,low,4,54,0.049,0,low,0,left,1,low,0,2.143,246.014,248.157,1
1,m,26,right,accuracy,low,4,55,0.049,1,low,0,left,1,low,0,1.67099999999999,250.745,252.416,1
1,m,26,right,accuracy,low,4,56,0.068,0,high,1,right,1,high,1,1.64800000000002,255.277,256.925,1
1,m,26,right,accuracy,low,4,57,0.065,1,high,1,right,1,high,1,1.428,259.809,261.237,1
1,m,26,right,accuracy,low,4,58,0.065,0,high,1,right,1,high,1,1.64300000000003,264.34,265.983,1
1,m,26,right,accuracy,low,4,59,0.065,1,high,1,right,1,high,1,1.827,268.872,270.699,1
1,m,26,right,accuracy,low,4,60,0.046,0,low,0,left,1,low,0,1.52300000000002,273.421,274.944,1
1,m,26,right,accuracy,low,4,61,0.052,1,low,0,left,1,low,0,1.851,277.936,279.787,1
1,m,26,right,accuracy,low,4,62,0.055,0,low,1,right,0,high,1,1.58699999999999,282.468,284.055,1
1,m,26,right,accuracy,low,4,63,0.055,1,low,0,left,1,low,0,1.83299999999997,287.033,288.866,1
1,m,26,right,accuracy,low,4,64,0.049,0,low,1,right,0,high,1,1.714,291.564,293.278,1
1,m,26,right,accuracy,low,4,65,0.065,1,high,1,right,1,high,1,1.58100000000002,296.079,297.66,1
1,m,26,right,accuracy,low,4,66,0.055,0,low,0,left,1,low,0,1.80800000000005,300.578,302.386,1
1,m,26,right,accuracy,low,4,67,0.049,1,low,1,right,0,high,1,2.084,305.11,307.194,1
1,m,26,right,accuracy,low,4,68,0.068,0,high,1,right,1,high,1,1.71899999999999,309.808,311.527,1
1,m,26,right,accuracy,low,4,69,0.074,1,high,1,right,1,high,1,1.62099999999998,314.356,315.977,1
1,m,26,right,accuracy,low,4,70,0.055,0,low,1,right,0,high,1,1.87300000000005,318.888,320.761,1
1,m,26,right,accuracy,low,4,71,0.046,1,low,0,left,1,low,0,1.87400000000002,323.436,325.31,1
1,m,26,right,accuracy,low,4,72,0.052,0,low,0,left,1,low,0,1.74900000000002,327.984,329.733,1
1,m,26,right,accuracy,low,4,73,0.068,1,high,1,right,1,high,1,2.09399999999999,332.516,334.61,1
1,m,26,right,accuracy,low,4,74,0.055,0,low,0,left,1,low,0,2.23099999999999,337.197,339.428,1
1,m,26,right,accuracy,low,4,75,0.052,1,low,1,right,0,high,1,2.23499999999996,342.045,344.28,1
1,m,26,right,accuracy,low,4,76,0.068,0,high,0,left,0,low,0,2.25200000000001,346.842,349.094,1
1,m,26,right,accuracy,low,4,77,0.065,1,high,1,right,1,high,1,2.13400000000001,351.656,353.79,1
1,m,26,right,accuracy,low,4,78,0.049,0,low,0,left,1,low,0,2.00100000000003,356.354,358.355,1
1,m,26,right,accuracy,low,4,79,0.071,1,high,0,left,0,low,0,1.774,360.919,362.693,1
1,m,26,right,accuracy,low,4,80,0.052,0,low,0,left,1,low,0,1.76900000000001,365.467,367.236,1
1,m,26,right,accuracy,low,4,81,0.049,1,low,0,left,1,low,0,2.15899999999999,370.015,372.174,1
1,m,26,right,accuracy,low,4,82,0.071,0,high,1,right,1,high,1,1.47200000000004,374.78,376.252,1
1,m,26,right,accuracy,low,4,83,0.055,1,low,0,left,1,low,0,1.83799999999997,379.295,381.133,1
1,m,26,right,accuracy,low,4,84,0.065,0,high,1,right,1,high,1,1.73599999999999,383.843,385.579,1
1,m,26,right,accuracy,low,4,85,0.071,1,high,1,right,1,high,1,1.48099999999999,388.375,389.856,1
1,m,26,right,accuracy,low,4,86,0.065,0,high,1,right,1,high,1,1.47500000000002,392.873,394.348,1
1,m,26,right,accuracy,low,4,87,0.055,1,low,0,left,1,low,0,1.72200000000004,397.405,399.127,1
1,m,26,right,accuracy,low,4,88,0.052,0,low,0,left,1,low,0,1.858,401.937,403.795,1
1,m,26,right,accuracy,low,4,89,0.065,1,high,0,left,0,low,0,1.89299999999997,406.519,408.412,1
1,m,26,right,accuracy,low,4,90,0.071,0,high,1,right,1,high,1,1.59699999999998,411.034,412.631,1
1,m,26,right,accuracy,low,4,91,0.074,1,high,1,right,1,high,1,1.82799999999997,415.516,417.344,1
1,m,26,right,accuracy,low,4,92,0.055,0,low,0,left,1,low,0,2.02699999999999,420.031,422.058,1
1,m,26,right,accuracy,low,4,93,0.049,1,low,0,left,1,low,0,1.79499999999996,424.646,426.441,1
1,m,26,right,accuracy,low,4,94,0.065,0,high,1,right,1,high,1,1.8659999999999899,429.177,431.043,1
1,m,26,right,accuracy,low,4,95,0.074,1,high,1,right,1,high,1,2.26500000000004,433.693,435.958,1
1,m,26,right,accuracy,low,4,96,0.046,0,low,0,left,1,low,0,2.15500000000003,438.556,440.711,1
1,m,26,right,accuracy,low,4,97,0.052,1,low,0,left,1,low,0,1.62,443.254,444.874,1
1,m,26,right,accuracy,low,4,98,0.074,0,high,1,right,1,high,1,1.50199999999995,447.802,449.304,1
1,m,26,right,accuracy,low,4,99,0.068,1,high,0,left,0,low,0,1.73200000000003,452.318,454.05,1
1,m,26,right,accuracy,low,4,100,0.071,0,high,1,right,1,high,1,1.77600000000001,456.849,458.625,1
1,m,26,right,accuracy,low,4,101,0.071,1,high,0,left,0,low,0,1.67399999999998,461.398,463.072,1
1,m,26,right,accuracy,low,4,102,0.068,0,high,1,right,1,high,1,1.76999999999998,465.913,467.683,1
1,m,26,right,accuracy,low,4,103,0.046,1,low,0,left,1,low,0,1.70599999999996,470.461,472.167,1
1,m,26,right,accuracy,low,4,104,0.071,0,high,0,left,0,low,0,1.24799999999999,474.976,476.224,1
1,m,26,right,accuracy,low,4,105,0.071,1,high,1,right,1,high,1,1.779,479.558,481.337,1
1,m,26,right,accuracy,low,4,106,0.065,0,high,1,right,1,high,1,1.59399999999999,484.14,485.734,1
1,m,26,right,accuracy,low,4,107,0.046,1,low,0,left,1,low,0,1.48099999999999,488.688,490.169,1
1,m,26,right,accuracy,low,4,108,0.049,0,low,1,right,0,high,1,2.00600000000003,493.236,495.242,1
1,m,26,right,accuracy,low,4,109,0.055,1,low,0,left,1,low,0,1.56400000000002,497.835,499.399,1
1,m,26,right,accuracy,low,4,110,0.055,0,low,0,left,1,low,0,1.52200000000005,502.4,503.922,1
1,m,26,right,accuracy,low,4,111,0.071,1,high,1,right,1,high,1,1.74299999999999,506.932,508.675,1
1,m,26,right,accuracy,low,4,112,0.068,0,high,1,right,1,high,1,1.75599999999997,511.48,513.236,1
1,m,26,right,accuracy,low,4,113,0.052,1,low,0,left,1,low,0,1.67600000000004,516.011,517.687,1
1,m,26,right,accuracy,low,4,114,0.074,0,high,1,right,1,high,1,1.46899999999994,520.576,522.045,1
1,m,26,right,accuracy,low,4,115,0.071,1,high,1,right,1,high,1,1.89800000000002,525.108,527.006,1
1,m,26,right,accuracy,low,4,116,0.065,0,high,0,left,0,low,0,1.76300000000003,529.64,531.403,1
1,m,26,right,accuracy,low,4,117,0.068,1,high,0,left,0,low,0,1.69200000000001,534.188,535.88,1
1,m,26,right,accuracy,low,4,118,0.046,0,low,0,left,1,low,0,1.38499999999999,538.703,540.088,1
1,m,26,right,accuracy,low,4,119,0.068,1,high,1,right,1,high,1,1.72300000000007,543.252,544.975,1
1,m,26,right,accuracy,low,4,120,0.068,0,high,1,right,1,high,1,1.56399999999996,547.767,549.331,1
1,m,26,right,accuracy,low,4,121,0.074,1,high,0,left,0,low,0,1.67599999999993,552.315,553.991,1
1,m,26,right,accuracy,low,4,122,0.074,0,high,1,right,1,high,1,1.88800000000003,556.847,558.735,1
1,m,26,right,accuracy,low,4,123,0.071,1,high,1,right,1,high,1,1.66399999999999,561.412,563.076,1
1,m,26,right,accuracy,low,4,124,0.065,0,high,0,left,0,low,0,1.529,565.96,567.489,1
1,m,26,right,accuracy,low,4,125,0.046,1,low,0,left,1,low,0,1.61799999999994,570.542,572.16,1
1,m,26,right,accuracy,low,4,126,0.074,0,high,1,right,1,high,1,1.56099999999992,575.09,576.651,1
1,m,26,right,accuracy,low,4,127,0.068,1,high,0,left,0,low,0,1.74700000000007,579.622,581.369,1
1,m,26,right,accuracy,low,4,128,0.046,0,low,0,left,1,low,0,1.45600000000002,584.154,585.61,1
2,w,21,right,speeded,high,1,1,0.046,1,low,1,NA,1,low,0,NA,NA,NA,1
2,w,21,right,speeded,high,1,2,0.052,0,low,0,NA,0,high,1,NA,NA,NA,1
2,w,21,right,speeded,high,1,3,0.065,1,high,0,NA,1,high,1,NA,NA,NA,1
2,w,21,right,speeded,high,1,4,0.074,0,high,0,NA,1,high,1,NA,NA,NA,1
2,w,21,right,speeded,high,1,5,0.065,1,high,1,NA,0,low,0,NA,NA,NA,1
2,w,21,right,speeded,high,1,6,0.055,0,low,1,NA,1,low,0,NA,NA,NA,1
2,w,21,right,speeded,high,1,7,0.065,1,high,0,NA,1,high,1,NA,NA,NA,1
2,w,21,right,speeded,high,1,8,0.046,0,low,1,NA,1,low,0,NA,NA,NA,1
2,w,21,right,speeded,high,1,9,0.071,1,high,0,NA,1,high,1,NA,NA,NA,1
2,w,21,right,speeded,high,1,10,0.068,0,high,1,NA,0,low,0,NA,NA,NA,1
2,w,21,right,speeded,high,1,11,0.074,1,high,0,NA,1,high,1,NA,NA,NA,1
2,w,21,right,speeded,high,1,12,0.068,0,high,1,NA,0,low,0,NA,NA,NA,1
2,w,21,right,speeded,high,1,13,0.046,1,low,1,NA,1,low,0,NA,NA,NA,1
2,w,21,right,speeded,high,1,14,0.068,0,high,0,NA,1,high,1,NA,NA,NA,1
2,w,21,right,speeded,high,1,15,0.049,1,low,0,NA,0,high,1,NA,NA,NA,1
2,w,21,right,speeded,high,1,16,0.071,0,high,0,NA,1,high,1,NA,NA,NA,1
2,w,21,right,speeded,high,1,17,0.074,1,high,0,NA,1,high,1,NA,NA,NA,1
2,w,21,right,speeded,high,1,18,0.074,0,high,0,NA,1,high,1,NA,NA,NA,1
2,w,21,right,speeded,high,1,19,0.055,1,low,1,NA,1,low,0,NA,NA,NA,1
2,w,21,right,speeded,high,1,20,0.055,0,low,1,NA,1,low,0,NA,NA,NA,1
2,w,21,right,speeded,high,1,21,0.071,1,high,0,NA,1,high,1,NA,NA,NA,1
2,w,21,right,speeded,high,1,22,0.071,0,high,1,NA,0,low,0,NA,NA,NA,1
2,w,21,right,speeded,high,1,23,0.071,1,high,0,NA,1,high,1,NA,NA,NA,1
2,w,21,right,speeded,high,1,24,0.046,0,low,1,NA,1,low,0,NA,NA,NA,1
2,w,21,right,speeded,high,1,25,0.049,1,low,1,NA,1,low,0,NA,NA,NA,1
2,w,21,right,speeded,high,1,26,0.052,0,low,1,NA,1,low,0,NA,NA,NA,1
2,w,21,right,speeded,high,1,27,0.068,1,high,0,NA,1,high,1,NA,NA,NA,1
2,w,21,right,speeded,high,1,28,0.055,0,low,1,NA,1,low,0,NA,NA,NA,1
2,w,21,right,speeded,high,1,29,0.074,1,high,1,NA,0,low,0,NA,NA,NA,1
2,w,21,right,speeded,high,1,30,0.055,0,low,1,NA,1,low,0,NA,NA,NA,1
2,w,21,right,speeded,high,1,31,0.068,1,high,0,NA,1,high,1,NA,NA,NA,1
2,w,21,right,speeded,high,1,32,0.052,0,low,1,NA,1,low,0,NA,NA,NA,1
2,w,21,right,speeded,high,1,33,0.074,1,high,0,NA,1,high,1,NA,NA,NA,1
2,w,21,right,speeded,high,1,34,0.068,0,high,0,NA,1,high,1,NA,NA,NA,1
2,w,21,right,speeded,high,1,35,0.049,1,low,1,NA,1,low,0,NA,NA,NA,1
2,w,21,right,speeded,high,1,36,0.046,0,low,1,NA,1,low,0,NA,NA,NA,1
2,w,21,right,speeded,high,1,37,0.049,1,low,1,NA,1,low,0,NA,NA,NA,1
2,w,21,right,speeded,high,1,38,0.049,0,low,1,NA,1,low,0,NA,NA,NA,1
2,w,21,right,speeded,high,1,39,0.049,1,low,0,NA,0,high,1,NA,NA,NA,1
2,w,21,right,speeded,high,1,40,0.071,0,high,0,NA,1,high,1,NA,NA,NA,1
2,w,21,right,speeded,high,1,41,0.071,1,high,0,NA,1,high,1,NA,NA,NA,1
2,w,21,right,speeded,high,1,42,0.052,0,low,1,NA,1,low,0,NA,NA,NA,1
2,w,21,right,speeded,high,1,43,0.068,1,high,0,NA,1,high,1,NA,NA,NA,1
2,w,21,right,speeded,high,1,44,0.074,0,high,0,NA,1,high,1,NA,NA,NA,1
2,w,21,right,speeded,high,1,45,0.046,1,low,0,NA,0,high,1,NA,NA,NA,1
2,w,21,right,speeded,high,1,46,0.071,0,high,0,NA,1,high,1,NA,NA,NA,1
2,w,21,right,speeded,high,1,47,0.046,1,low,1,NA,1,low,0,NA,NA,NA,1
2,w,21,right,speeded,high,1,48,0.074,0,high,0,NA,1,high,1,NA,NA,NA,1
2,w,21,right,speeded,high,1,49,0.068,1,high,0,NA,1,high,1,NA,NA,NA,1
2,w,21,right,speeded,high,1,50,0.046,0,low,1,NA,1,low,0,NA,NA,NA,1
2,w,21,right,speeded,high,1,51,0.055,1,low,1,NA,1,low,0,NA,NA,NA,1
2,w,21,right,speeded,high,1,52,0.046,0,low,1,NA,1,low,0,NA,NA,NA,1
2,w,21,right,speeded,high,1,53,0.052,1,low,0,NA,0,high,1,NA,NA,NA,1
2,w,21,right,speeded,high,1,54,0.065,0,high,0,NA,1,high,1,NA,NA,NA,1
2,w,21,right,speeded,high,1,55,0.065,1,high,0,NA,1,high,1,NA,NA,NA,1
2,w,21,right,speeded,high,1,56,0.046,0,low,0,NA,0,high,1,NA,NA,NA,1
2,w,21,right,speeded,high,1,57,0.055,1,low,1,NA,1,low,0,NA,NA,NA,1
2,w,21,right,speeded,high,1,58,0.074,0,high,1,NA,0,low,0,NA,NA,NA,1
2,w,21,right,speeded,high,1,59,0.068,1,high,0,NA,1,high,1,NA,NA,NA,1
2,w,21,right,speeded,high,1,60,0.074,0,high,1,NA,0,low,0,NA,NA,NA,1
2,w,21,right,speeded,high,1,61,0.049,1,low,1,NA,1,low,0,NA,NA,NA,1
2,w,21,right,speeded,high,1,62,0.065,0,high,0,NA,1,high,1,NA,NA,NA,1
2,w,21,right,speeded,high,1,63,0.074,1,high,0,NA,1,high,1,NA,NA,NA,1
2,w,21,right,speeded,high,1,64,0.065,0,high,1,NA,0,low,0,NA,NA,NA,1
2,w,21,right,speeded,high,1,65,0.049,1,low,1,NA,1,low,0,NA,NA,NA,1
2,w,21,right,speeded,high,1,66,0.052,0,low,1,NA,1,low,0,NA,NA,NA,1
2,w,21,right,speeded,high,1,67,0.065,1,high,1,NA,0,low,0,NA,NA,NA,1
2,w,21,right,speeded,high,1,68,0.068,0,high,0,NA,1,high,1,NA,NA,NA,1
2,w,21,right,speeded,high,1,69,0.046,1,low,0,NA,0,high,1,NA,NA,NA,1
2,w,21,right,speeded,high,1,70,0.065,0,high,0,NA,1,high,1,NA,NA,NA,1
2,w,21,right,speeded,high,1,71,0.052,1,low,1,NA,1,low,0,NA,NA,NA,1
2,w,21,right,speeded,high,1,72,0.046,0,low,1,NA,1,low,0,NA,NA,NA,1
2,w,21,right,speeded,high,1,73,0.065,1,high,1,NA,0,low,0,NA,NA,NA,1
2,w,21,right,speeded,high,1,74,0.071,0,high,0,NA,1,high,1,NA,NA,NA,1
2,w,21,right,speeded,high,1,75,0.071,1,high,1,NA,0,low,0,NA,NA,NA,1
2,w,21,right,speeded,high,1,76,0.065,0,high,1,NA,0,low,0,NA,NA,NA,1
2,w,21,right,speeded,high,1,77,0.055,1,low,1,NA,1,low,0,NA,NA,NA,1
2,w,21,right,speeded,high,1,78,0.074,0,high,0,NA,1,high,1,NA,NA,NA,1
2,w,21,right,speeded,high,1,79,0.052,1,low,1,NA,1,low,0,NA,NA,NA,1
2,w,21,right,speeded,high,1,80,0.052,0,low,1,NA,1,low,0,NA,NA,NA,1
2,w,21,right,speeded,high,1,81,0.068,1,high,0,NA,1,high,1,NA,NA,NA,1
2,w,21,right,speeded,high,1,82,0.068,0,high,0,NA,1,high,1,NA,NA,NA,1
2,w,21,right,speeded,high,1,83,0.071,1,high,0,NA,1,high,1,NA,NA,NA,1
2,w,21,right,speeded,high,1,84,0.049,0,low,1,NA,1,low,0,NA,NA,NA,1
2,w,21,right,speeded,high,1,85,0.055,1,low,0,NA,0,high,1,NA,NA,NA,1
2,w,21,right,speeded,high,1,86,0.074,0,high,1,NA,0,low,0,NA,NA,NA,1
2,w,21,right,speeded,high,1,87,0.052,1,low,1,NA,1,low,0,NA,NA,NA,1
2,w,21,right,speeded,high,1,88,0.065,0,high,0,NA,1,high,1,NA,NA,NA,1
2,w,21,right,speeded,high,1,89,0.052,1,low,1,NA,1,low,0,NA,NA,NA,1
2,w,21,right,speeded,high,1,90,0.052,0,low,1,NA,1,low,0,NA,NA,NA,1
2,w,21,right,speeded,high,1,91,0.074,1,high,1,NA,0,low,0,NA,NA,NA,1
2,w,21,right,speeded,high,1,92,0.055,0,low,1,NA,1,low,0,NA,NA,NA,1
2,w,21,right,speeded,high,1,93,0.068,1,high,0,NA,1,high,1,NA,NA,NA,1
2,w,21,right,speeded,high,1,94,0.049,0,low,1,NA,1,low,0,NA,NA,NA,1
2,w,21,right,speeded,high,1,95,0.065,1,high,0,NA,1,high,1,NA,NA,NA,1
2,w,21,right,speeded,high,1,96,0.049,0,low,1,NA,1,low,0,NA,NA,NA,1
2,w,21,right,speeded,high,1,97,0.046,1,low,1,NA,1,low,0,NA,NA,NA,1
2,w,21,right,speeded,high,1,98,0.055,0,low,1,NA,1,low,0,NA,NA,NA,1
2,w,21,right,speeded,high,1,99,0.049,1,low,1,NA,1,low,0,NA,NA,NA,1
2,w,21,right,speeded,high,1,100,0.065,0,high,0,NA,1,high,1,NA,NA,NA,1
2,w,21,right,speeded,high,1,101,0.065,1,high,0,NA,1,high,1,NA,NA,NA,1
2,w,21,right,speeded,high,1,102,0.071,0,high,0,NA,1,high,1,NA,NA,NA,1
2,w,21,right,speeded,high,1,103,0.046,1,low,1,NA,1,low,0,NA,NA,NA,1
2,w,21,right,speeded,high,1,104,0.068,0,high,0,NA,1,high,1,NA,NA,NA,1
2,w,21,right,speeded,high,1,105,0.052,1,low,1,NA,1,low,0,NA,NA,NA,1
2,w,21,right,speeded,high,1,106,0.049,0,low,0,NA,0,high,1,NA,NA,NA,1
2,w,21,right,speeded,high,1,107,0.055,1,low,0,NA,0,high,1,NA,NA,NA,1
2,w,21,right,speeded,high,1,108,0.065,0,high,1,NA,0,low,0,NA,NA,NA,1
2,w,21,right,speeded,high,1,109,0.055,1,low,0,NA,0,high,1,NA,NA,NA,1
2,w,21,right,speeded,high,1,110,0.049,0,low,1,NA,1,low,0,NA,NA,NA,1
2,w,21,right,speeded,high,1,111,0.052,1,low,0,NA,0,high,1,NA,NA,NA,1
2,w,21,right,speeded,high,1,112,0.052,0,low,1,NA,1,low,0,NA,NA,NA,1
2,w,21,right,speeded,high,1,113,0.055,1,low,1,NA,1,low,0,NA,NA,NA,1
2,w,21,right,speeded,high,1,114,0.055,0,low,1,NA,1,low,0,NA,NA,NA,1
2,w,21,right,speeded,high,1,115,0.068,1,high,0,NA,1,high,1,NA,NA,NA,1
2,w,21,right,speeded,high,1,116,0.068,0,high,0,NA,1,high,1,NA,NA,NA,1
2,w,21,right,speeded,high,1,117,0.052,1,low,1,NA,1,low,0,NA,NA,NA,1
2,w,21,right,speeded,high,1,118,0.046,0,low,1,NA,1,low,0,NA,NA,NA,1
2,w,21,right,speeded,high,1,119,0.071,1,high,0,NA,1,high,1,NA,NA,NA,1
2,w,21,right,speeded,high,1,120,0.049,0,low,0,NA,0,high,1,NA,NA,NA,1
2,w,21,right,speeded,high,1,121,0.074,1,high,0,NA,1,high,1,NA,NA,NA,1
2,w,21,right,speeded,high,1,122,0.071,0,high,0,NA,1,high,1,NA,NA,NA,1
2,w,21,right,speeded,high,1,123,0.074,1,high,1,NA,0,low,0,NA,NA,NA,1
2,w,21,right,speeded,high,1,124,0.049,0,low,1,NA,1,low,0,NA,NA,NA,1
2,w,21,right,speeded,high,1,125,0.046,1,low,0,NA,0,high,1,NA,NA,NA,1
2,w,21,right,speeded,high,1,126,0.071,0,high,0,NA,1,high,1,NA,NA,NA,1
2,w,21,right,speeded,high,1,127,0.071,1,high,0,NA,1,high,1,NA,NA,NA,1
2,w,21,right,speeded,high,1,128,0.055,0,low,1,NA,1,low,0,NA,NA,NA,1
2,w,21,right,speeded,high,2,1,0.065,1,high,1,right,0,low,0,0.952,2.643,3.595,1
2,w,21,right,speeded,high,2,2,0.049,0,low,1,right,1,low,0,0.976999999999999,7.159,8.136,1
2,w,21,right,speeded,high,2,3,0.052,1,low,0,left,0,high,1,1.011,11.69,12.701,1
2,w,21,right,speeded,high,2,4,0.074,0,high,0,left,1,high,1,1.03,16.206,17.236,1
2,w,21,right,speeded,high,2,5,0.068,1,high,0,left,1,high,1,1.349,20.704,22.053,1
2,w,21,right,speeded,high,2,6,0.046,0,low,1,right,1,low,0,0.998000000000001,25.203,26.201,1
2,w,21,right,speeded,high,2,7,0.052,1,low,1,right,1,low,0,0.896000000000001,29.768,30.664,1
2,w,21,right,speeded,high,2,8,0.049,0,low,1,right,1,low,0,1.255,34.299,35.554,1
2,w,21,right,speeded,high,2,9,0.065,1,high,0,left,1,high,1,1.17,38.815,39.985,1
2,w,21,right,speeded,high,2,10,0.071,0,high,0,left,1,high,1,1.072,43.363,44.435,1
2,w,21,right,speeded,high,2,11,0.074,1,high,0,left,1,high,1,1.215,47.878,49.093,1
2,w,21,right,speeded,high,2,12,0.046,0,low,1,right,1,low,0,1.38,52.41,53.79,1
2,w,21,right,speeded,high,2,13,0.071,1,high,0,left,1,high,1,0.937000000000005,56.925,57.862,1
2,w,21,right,speeded,high,2,14,0.074,0,high,0,left,1,high,1,0.990000000000002,61.424,62.414,1
2,w,21,right,speeded,high,2,15,0.055,1,low,1,right,1,low,0,1.15400000000001,65.972,67.126,1
2,w,21,right,speeded,high,2,16,0.068,0,high,1,right,0,low,0,1.17399999999999,70.504,71.678,1
2,w,21,right,speeded,high,2,17,0.071,1,high,0,left,1,high,1,1.113,75.002,76.115,1
2,w,21,right,speeded,high,2,18,0.046,0,low,1,right,1,low,0,1.005,79.551,80.556,1
